 Energy(eV)     Ext/Sca_Zpol     Ext/Sca_Ypol     Ext/Sca_Xpol
 2.7 483.451 342.733 442.933 301.411 340.334 201.91
 2.71 495.864 351.343 454.929 309.626 350.495 208.22
 2.72 508.688 360.218 467.358 318.132 361.066 214.79
 2.73 521.943 369.37 480.241 326.94 372.069 221.634
 2.74 535.651 378.814 493.6 336.067 383.526 228.766
 2.75 549.835 388.565 507.458 345.527 395.46 236.2
 2.76 564.52 398.638 521.84 355.337 407.896 243.954
 2.77 579.732 409.05 536.774 365.514 420.863 252.044
 2.78 595.499 419.819 552.287 376.078 434.388 260.489
 2.79 611.853 430.965 568.41 387.047 448.503 269.307
 2.8 628.825 442.509 585.176 398.444 463.24 278.52
 2.81 646.449 454.472 602.618 410.29 478.633 288.15
 2.82 664.763 466.878 620.774 422.609 494.722 298.221
 2.83 683.808 479.753 639.682 435.428 511.546 308.758
 2.84 703.624 493.124 659.386 448.773 529.147 319.788
 2.85 724.259 507.021 679.93 462.675 547.573 331.341
 2.86 745.762 521.475 701.363 477.163 566.873 343.447
 2.87 768.186 536.52 723.737 492.274 587.1 356.141
 2.88 791.588 552.192 747.107 508.041 608.312 369.458
 2.89 816.03 568.531 771.534 524.506 630.571 383.438
 2.9 841.578 585.58 797.082 541.708 653.944 398.122
 2.91 868.305 603.384 823.823 559.694 678.502 413.556
 2.92 896.288 621.994 851.829 578.512 704.325 429.789
 2.93 925.613 641.462 881.185 598.214 731.497 446.873
 2.94 956.369 661.846 911.977 618.858 760.11 464.867
 2.95 988.658 683.212 944.301 640.504 790.263 483.832
 2.96 1022.59 705.625 978.262 663.22 822.065 503.835
 2.97 1058.27 729.163 1013.97 687.077 855.634 524.951
 2.98 1095.85 753.905 1051.55 712.153 891.098 547.259
 2.99 1135.45 779.94 1091.14 738.535 928.599 570.847
 3 1177.22 807.366 1132.88 766.316 968.29 595.81
 3.01 1221.35 836.287 1176.93 795.596 1010.34 622.252
 3.02 1268.01 866.822 1223.46 826.488 1054.93 650.288
 3.03 1317.41 899.096 1272.68 859.112 1102.28 680.043
 3.04 1369.76 933.25 1324.78 893.603 1152.59 711.656
 3.05 1425.32 969.438 1380.01 930.107 1206.12 745.279
 3.06 1484.36 1007.83 1438.61 968.785 1263.15 781.081
 3.07 1547.18 1048.62 1500.88 1009.82 1323.98 819.248
 3.08 1614.12 1092.01 1567.12 1053.4 1388.94 859.986
 3.09 1685.54 1138.23 1637.69 1099.75 1458.42 903.525
 3.1 1761.87 1187.55 1712.98 1149.12 1532.83 950.122
 3.11 1843.58 1240.24 1793.41 1201.76 1612.64 1000.06
 3.12 1931.17 1296.64 1879.47 1258 1698.38 1053.66
 3.13 2025.25 1357.11 1971.72 1318.15 1790.65 1111.29
 3.14 2126.47 1422.05 2070.75 1382.61 1890.11 1173.34
 3.15 2235.58 1491.91 2177.27 1451.79 1997.53 1240.28
 3.16 2353.44 1567.23 2292.04 1526.19 2113.76 1312.62
 3.17 2481 1648.58 2415.97 1606.33 2239.79 1390.96
 3.18 2619.37 1736.64 2550.05 1692.85 2376.73 1475.95
 3.19 2769.82 1832.17 2695.45 1786.45 2525.89 1568.38
 3.2 2933.79 1936.06 2853.48 1887.93 2688.73 1669.12
 3.21 3112.99 2049.3 3025.68 1998.21 2866.99 1779.2
 3.22 3309.34 2173.08 3213.8 2118.37 3062.64 1899.78
 3.23 3525.13 2308.75 3419.89 2249.62 3278.03 2032.24
 3.24 3763.02 2457.89 3646.34 2393.42 3515.87 2178.19
 3.25 4026.13 2622.35 3895.95 2551.42 3779.38 2339.5
 3.26 4318.18 2804.33 4172.02 2725.59 4072.39 2518.39
 3.27 4643.56 3006.39 4478.46 2918.24 4399.42 2717.51
 3.28 5007.56 3231.64 4819.92 3132.11 4765.93 2939.98
 3.29 5416.52 3483.74 5201.97 3370.46 5178.48 3189.6
 3.3 5878.14 3767.15 5631.36 3637.22 5645.05 3470.92
 3.31 6401.83 4087.26 6116.25 3937.1 6175.42 3789.49
 3.32 6999.13 4450.66 6666.63 4275.85 6781.61 4152.13
 3.33 7684.39 4865.46 7294.83 4660.49 7478.58 4567.22
 3.34 8475.52 5341.72 8016.15 5099.65 8285.07 5045.2
 3.35 9395.09 5891.98 8849.76 5604.06 9224.74 5599.15
 3.36 10471.8 6532.05 9819.89 6187.12 10327.8 6245.59
 3.37 11742.6 7281.96 10957.4 6865.67 11633 7005.52
 3.38 13255 8167.27 12302.1 7661.05 13190.7 7905.82
 3.39 15071.3 9220.73 13905.5 8600.43 15066.8 8981.09
 3.4 17273.2 10484.4 15835.4 9718.54 17348.1 10275.9
 3.41 19968.4 12012.3 18181.1 11059.8 20149.1 11847.5
 3.42 23299 13872.6 21061.3 12680.4 23621.4 13768.7
 3.43 27449.7 16149 24634.2 14650.8 27962.9 16128.8
 3.44 32654.2 18936.9 29109.8 17055.2 33425.2 19030.2
 3.45 39184.2 22326.7 34758.1 19985.9 40306.5 22572
 3.46 47282 26356.1 41888.5 23521.7 48891.6 26803.8
 3.47 56899.1 30901.4 50671.4 27670.5 59207 31627.1
 3.48 66978.9 35509.8 60452.9 32241.1 70251.6 36630.7
 3.49 74954 39352.2 69035.5 36673.6 79127.9 40915
 3.5 78714.2 41423.3 74534.6 40036.8 82963.7 43148.9
 3.51 77658 40826 76308.5 41242.1 81004.3 42244.6
 3.52 71966.7 37464.9 73609.7 39580.9 73904.8 38272.4
 3.53 63094.9 32277.8 66705.6 35361.7 63675.6 32465.2
 3.54 53121.7 26532.7 57338.6 29760.2 52745.6 26293.9
 3.55 43648.9 21150.8 47553.3 24021.4 42776.3 20718.5
 3.56 35466.6 16558 38695.9 18911.5 34439.6 16101.5
 3.57 28765.5 12836.1 31293.9 14700 27776.3 12443.8
 3.58 23432 9899.7 25365.9 11365.8 22563.1 9602.9
 3.59 19246.8 7611.11 20717.3 8774.9 18519 7410.42
 3.6 15984.5 5834.36 17107.1 6775.13 15390.2 5717.86
 3.61 13451.7 4455.13 14317.4 5233.23 12973.6 4407.85
 3.62 11496.1 3384.23 12173.1 4043.8 11115.9 3392.21
 3.63 10003.6 2554.93 10542.1 3127.56 9705.74 2606.63
 3.64 8892.46 1918.89 9329.75 2426.79 8665.99 2005.44
 3.65 8108.16 1442.53 8472.84 1900.78 7947.59 1557.48
 3.66 7619.89 1104.33 7935.78 1522.38 7526.66 1243.39
 3.67 7419.65 893.238 7710.19 1275.72 7404.95 1054.11
 3.68 7524.53 808.212 7818.86 1155.11 7614.97 990.736
 3.69 7982.69 859 8324.56 1164.94 8230.4 1065.93
 3.7 8878.05 1068.22 9333.55 1320.03 9372.7 1307.22
