 Energy(eV)     Ext/Sca_Zpol     Ext/Sca_Ypol     Ext/Sca_Xpol
 2.7 493.157 355.961 789.734 632.501 615.168 485.639
 2.71 506.495 365.507 813.218 651.511 632.124 499.141
 2.72 520.302 375.377 837.57 671.215 649.657 513.093
 2.73 534.599 385.583 862.832 691.646 667.795 527.517
 2.74 549.41 396.142 889.049 712.839 686.565 542.434
 2.75 564.761 407.07 916.267 734.832 705.995 557.865
 2.76 580.677 418.386 944.538 757.662 726.116 573.833
 2.77 597.187 430.107 973.913 781.373 746.961 590.365
 2.78 614.322 442.254 1004.45 806.01 768.564 607.486
 2.79 632.112 454.848 1036.21 831.618 790.962 625.224
 2.8 650.593 467.911 1069.26 858.25 814.193 643.609
 2.81 669.8 481.468 1103.66 885.959 838.3 662.672
 2.82 689.773 495.543 1139.49 914.802 863.325 682.447
 2.83 710.553 510.165 1176.82 944.842 889.316 702.969
 2.84 732.185 525.363 1215.75 976.143 916.322 724.276
 2.85 754.716 541.167 1256.36 1008.78 944.398 746.409
 2.86 778.198 557.612 1298.75 1042.82 973.598 769.41
 2.87 802.686 574.732 1343.01 1078.35 1003.98 793.326
 2.88 828.238 592.566 1389.27 1115.45 1035.62 818.205
 2.89 854.919 611.156 1437.64 1154.22 1068.58 844.1
 2.9 882.796 630.546 1488.25 1194.77 1102.93 871.067
 2.91 911.943 650.782 1541.24 1237.18 1138.76 899.166
 2.92 942.44 671.917 1596.75 1281.59 1176.14 928.462
 2.93 974.372 694.006 1654.95 1328.12 1215.18 959.024
 2.94 1007.83 717.109 1716.02 1376.91 1255.97 990.927
 2.95 1042.93 741.289 1780.14 1428.09 1298.61 1024.25
 2.96 1079.76 766.617 1847.52 1481.83 1343.23 1059.08
 2.97 1118.45 793.169 1918.37 1538.31 1389.95 1095.51
 2.98 1159.13 821.026 1992.95 1597.7 1438.89 1133.64
 2.99 1201.93 850.279 2071.51 1660.22 1490.21 1173.57
 3 1247.03 881.025 2154.35 1726.08 1544.06 1215.44
 3.01 1294.57 913.368 2241.77 1795.52 1600.62 1259.35
 3.02 1344.76 947.427 2334.11 1868.82 1660.06 1305.46
 3.03 1397.78 983.327 2431.76 1946.25 1722.6 1353.91
 3.04 1453.87 1021.21 2535.12 2028.14 1788.45 1404.87
 3.05 1513.28 1061.22 2644.64 2114.83 1857.85 1458.5
 3.06 1576.26 1103.54 2760.83 2206.7 1931.07 1515.02
 3.07 1643.14 1148.34 2884.22 2304.18 2008.39 1574.62
 3.08 1714.23 1195.84 3015.44 2407.72 2090.13 1637.55
 3.09 1789.92 1246.25 3155.14 2517.85 2176.64 1704.06
 3.1 1870.61 1299.84 3304.07 2635.12 2268.3 1774.43
 3.11 1956.78 1356.88 3463.06 2760.17 2365.53 1848.97
 3.12 2048.94 1417.68 3633.03 2893.7 2468.81 1928.02
 3.13 2147.68 1482.6 3815.01 3036.48 2578.65 2011.96
 3.14 2253.65 1552.02 4010.15 3189.4 2695.62 2101.21
 3.15 2367.61 1626.4 4219.73 3353.42 2820.37 2196.24
 3.16 2490.4 1706.22 4445.21 3529.65 2953.61 2297.55
 3.17 2622.99 1792.05 4688.22 3719.31 3096.15 2405.74
 3.18 2766.48 1884.55 4950.61 3923.79 3248.87 2521.43
 3.19 2922.14 1984.43 5234.47 4144.67 3412.8 2645.37
 3.2 3091.44 2092.53 5542.17 4383.71 3589.06 2778.36
 3.21 3276.07 2209.83 5876.43 4642.95 3778.96 2921.32
 3.22 3478.02 2337.44 6240.32 4924.68 3983.95 3075.29
 3.23 3699.58 2476.66 6637.4 5231.54 4205.69 3241.44
 3.24 3943.5 2628.98 7071.72 5566.52 4446.09 3421.1
 3.25 4212.99 2796.19 7547.98 5933.1 4707.34 3615.82
 3.26 4511.9 2980.39 8071.58 6335.25 4991.93 3827.32
 3.27 4844.87 3184.05 8648.8 6777.56 5302.78 4057.62
 3.28 5217.47 3410.15 9286.9 7265.33 5643.25 4309.02
 3.29 5636.53 3662.28 9994.35 7804.7 6017.25 4584.2
 3.3 6110.44 3944.78 10781 8402.79 6429.39 4886.24
 3.31 6649.65 4263.01 11658.5 9067.87 6885.05 5218.76
 3.32 7267.26 4623.56 12640.2 9809.51 7390.62 5585.97
 3.33 7979.93 5034.7 13741.8 10638.8 7953.68 5992.8
 3.34 8809.07 5506.87 14981.6 11568.4 8583.3 6445.06
 3.35 9782.62 6053.43 16380.9 12613 9290.37 6949.59
 3.36 10937.5 6691.69 17963.9 13788.9 10088.1 7514.44
 3.37 12323.2 7444.39 19758.5 15114.5 10992.5 8149.15
 3.38 14007.3 8341.74 21795.2 16609.1 12023.3 8864.91
 3.39 16082.7 9424.29 24107 18292.6 13205.1 9674.84
 3.4 18679.2 10746.8 26727.1 20183 14568.2 10594.1
 3.41 21977.6 12382.4 29686 22292.8 16151.4 11639.6
 3.42 26224.2 14425.3 33004.8 24623.5 18004.1 12829.3
 3.43 31730.1 16982.8 36687.6 27156.3 20190.2 14179.8
 3.44 38801.7 20130.4 40709.3 29839.6 22792.5 15699.8
 3.45 47467.7 23771.4 45001.3 32572.4 25912 17375.2
 3.46 56841.1 27342.1 49429.6 35183.7 29635.4 19137.2
 3.47 64548 29615.1 53720.6 37403.9 33869.8 20817.7
 3.48 67997.1 29522.4 57222.6 38836.5 37955 22240.8
 3.49 66998.6 27807.7 58726.5 39084.2 41028.9 23776.1
 3.5 62721.6 26085.8 57544.5 38158.5 43684.7 26206.2
 3.51 56268.4 24556.7 54496.6 36360.3 46724.9 29225
 3.52 49927.6 23208.9 50477.7 33808.8 49722.6 31915.7
 3.53 44898.5 22056.3 45852.8 30617.9 51806.5 33595.3
 3.54 40839.4 20838 40890.2 27036.2 52221.2 33837.3
 3.55 37085.9 19290.9 35887.8 23353.4 50585.3 32496.2
 3.56 33255.6 17338.9 31107.7 19806.1 47032.1 29768
 3.57 29316.4 15095.9 26728 16545.8 42132.3 26123.2
 3.58 25439.9 12766 22840.2 13646.8 36627.7 22115.2
 3.59 21832.1 10539.5 19470.4 11128.1 31164.2 18200.4
 3.6 18636.7 8539.82 16604.7 8976.34 26163 14661.5
 3.61 15915.9 6820.77 14209.4 7162.4 21825.9 11621.5
 3.62 13670.7 5387.16 12246 5652.93 18201.8 9097.31
 3.63 11869.6 4217.84 10680 4417.02 15256.4 7050.52
 3.64 10470.9 3282.26 9487.23 3430.41 12921.8 5421.96
 3.65 9436.21 2550.26 8658.49 2678.15 11126.4 4151.4
 3.66 8739.42 1997.09 8204.88 2157.12 9810.63 3186.73
 3.67 8372.02 1605.85 8164.82 1879.43 8935.73 2487.42
 3.68 8349.12 1368.99 8614.66 1877.91 8490.23 2025.13
 3.69 8716.94 1289.39 9679.06 2215.59 8498.08 1782.59
 3.7 9557.63 1380.22 11506.3 2996.28 9025.01 1750.59
