 Energy(eV)     Sca_L     Sca_R
 442.801 17816 1383.02
 441.225 19203 1517.69
 439.66 20723.9 1675.41
 438.107 22387.3 1860.16
 436.564 24199.4 2076.25
 435.032 26161.9 2327.96
 433.511 28269.3 2619.08
 432 30507.2 2952.11
 430.5 32849.2 3327.04
 429.011 35256.5 3739.82
 427.532 37679.7 4180.54
 426.062 40064.2 4631.67
 424.603 42361.8 5066.62
 423.154 44543.3 5448.98
 421.715 46607.9 5732.42
 420.285 48570.9 5862.01
 418.865 50393.8 5782.03
 417.455 51792.4 5472.33
 416.054 51934.6 5059.13
 414.663 49653.6 4948.64
 413.28 45171.8 5553.4
 411.907 40742.7 6687.95
 410.544 37955.1 7851.56
 409.189 36752.8 8808.37
 407.843 36565.8 9556.85
 406.505 36934.4 10152.1
 405.177 37558.3 10634.1
 403.857 38229.3 11015
 402.546 38786.6 11282.8
 401.243 39110.4 11410
 399.949 39150.5 11367.6
 398.663 38970.1 11142.3
 397.385 38738.2 10746.2
 396.115 38560.7 10184.2
 394.854 38275.1 9390.59
 393.6 37636 8282.12
 392.355 36600.2 6986.94
 391.117 35122.8 5879.72
 389.887 32985.9 5127.65
 388.665 30237.9 4571.85
 387.45 27215.7 4075.51
 386.243 24170.4 3621.34
 385.044 21200.6 3268.28
 383.852 18390.8 3097.15
 382.667 15978.1 3144.07
 381.49 14382.8 3370.25
 380.319 13830.8 3578.92
 379.156 13703.2 3517.78
 378 13198.4 3230.64
 376.851 12426.7 2959.24
 375.71 12208.5 2858.34
 374.574 13469.7 2902.44
 373.446 16246.6 2927.62
 372.325 19327.3 2897.73
 371.21 21286.1 2844.2
 370.102 21559.1 2690.95
 369 20667.8 2422.87
 367.905 19327.2 2078.85
 366.817 17907.5 1691.88
 365.735 16496.1 1316.78
 364.659 15110.3 1035.58
 363.59 13800.4 871.604
 362.527 12601.5 782.998
 361.47 11529.3 736.452
 360.419 10623.5 725.615
 359.374 9968.19 747.114
 358.336 9534.19 758.578
 357.303 9065.01 713.987
 356.276 8443.12 632.943
 355.255 7744.02 545.238
 354.24 7058.9 458.963
 353.231 6473.74 375.186
 352.228 6086.62 306.778
 351.23 5977.61 287.032
 350.238 6160.23 342.508
 349.251 6603.13 451.068
 348.27 7068.81 566.985
 347.295 7377.64 656.691
 346.324 7568.76 689.511
 345.36 7643.89 665.067
 344.4 7627.24 616.143
 343.446 7531.66 563.081
 342.498 7313.66 510.375
 341.554 7007.23 462.237
 340.616 6702.27 421.635
 339.683 6475.46 390.146
 338.754 6327.68 366.684
 337.831 6181.31 347.957
 336.913 5988.91 330.646
 336 5763.1 313.552
 335.092 5530.94 297.183
 334.189 5312.84 282.399
 333.291 5120.19 269.662
 332.397 4947.38 258.127
 331.508 4781.41 246.957
 330.624 4621.62 236.32
 329.745 4468.36 226.254
 328.87 4320.34 216.751
 328 4178.44 207.883
 327.135 4043.34 199.647
 326.274 3915.02 191.991
