 Energy(eV)     Sca_U     Sca_D
 442.801 1793.26 107.24
 441.225 1842.94 109.164
 439.66 1894.4 111.107
 438.107 1947.72 113.073
 436.564 2002.99 115.062
 435.032 2060.31 117.078
 433.511 2119.78 119.123
 432 2181.51 121.2
 430.5 2245.61 123.312
 429.011 2312.23 125.465
 427.532 2381.47 127.662
 426.062 2453.5 129.908
 424.603 2528.46 132.21
 423.154 2606.51 134.574
 421.715 2687.83 137.008
 420.285 2772.61 139.519
 418.865 2861.04 142.119
 417.455 2953.35 144.817
 416.054 3049.77 147.625
 414.663 3150.54 150.558
 413.28 3255.93 153.63
 411.907 3366.24 156.858
 410.544 3481.78 160.263
 409.189 3602.89 163.865
 407.843 3729.93 167.691
 406.505 3863.32 171.766
 405.177 4003.47 176.124
 403.857 4150.86 180.8
 402.546 4306.01 185.833
 401.243 4469.47 191.27
 399.949 4641.85 197.163
 398.663 4823.83 203.571
 397.385 5016.12 210.56
 396.115 5219.54 218.209
 394.854 5434.97 226.605
 393.6 5663.37 235.848
 392.355 5905.82 246.054
 391.117 6163.51 257.357
 389.887 6437.73 269.909
 388.665 6729.94 283.887
 387.45 7041.75 299.499
 386.243 7374.97 316.981
 385.044 7731.59 336.613
 383.852 8113.86 358.72
 382.667 8524.3 383.683
 381.49 8965.72 411.951
 380.319 9441.3 444.051
 379.156 9954.63 480.611
 378 10509.8 522.371
 376.851 11111.3 570.218
 375.71 11764.4 625.209
 374.574 12475.1 688.615
 373.446 13250.2 761.964
 372.325 14097.3 847.103
 371.21 15025.3 946.275
 370.102 16044.4 1062.21
 369 17166 1198.22
 367.905 18403.5 1358.41
 366.817 19771.9 1547.75
 365.735 21288.4 1772.4
 364.659 22972.2 2039.92
 363.59 24844.7 2359.57
 362.527 26929.5 2742.71
 361.47 29251.3 3203.16
 360.419 31835.2 3757.53
 359.374 34704.5 4425.46
 358.336 37876.8 5229.49
 357.303 41358.8 6194.34
 356.276 45137.8 7345.06
 355.255 49171.1 8703.35
 354.24 53373.3 10281.6
 353.231 57605.7 12074.1
 352.228 61674.7 14046.6
 351.23 65348.9 16128
 350.238 68404.5 18208.2
 349.251 70698.5 20150.5
 348.27 72248.8 21818.7
 347.295 73285.5 23110.2
 346.324 74239.9 23982
 345.36 75657.4 24453.5
 344.4 78022.5 24585.1
 343.446 81433.4 24439.8
 342.498 85026.5 24036.3
 341.554 86496.2 23329.3
 340.616 83364.7 22293.1
 339.683 75995.6 21059.7
 338.754 67414.5 19836.8
 337.831 60597.3 18638.7
 336.913 57038.4 17168.5
 336 55861.5 15250.8
 335.092 56033.3 13194.6
 334.189 57728.9 11244.2
 333.291 59402 9439.85
 332.397 58834.9 7860.13
 331.508 55981.1 6558.92
 330.624 51964.9 5512.68
 329.745 47658.4 4670.62
 328.87 43487.9 3987.21
 328 39618.4 3427.94
 327.135 36095.4 2967.16
 326.274 32915 2585.45
