 Energy(eV)     Sca_U     Sca_D
 442.801 96.6636 2812.14
 441.225 98.2831 2887.97
 439.66 99.9514 2966.38
 438.107 101.671 3047.5
 436.564 103.443 3131.46
 435.032 105.272 3218.41
 433.511 107.159 3308.48
 432 109.107 3401.83
 430.5 111.12 3498.64
 429.011 113.2 3599.07
 427.532 115.351 3703.33
 426.062 117.576 3811.6
 424.603 119.879 3924.12
 423.154 122.265 4041.11
 421.715 124.736 4162.83
 420.285 127.299 4289.53
 418.865 129.957 4421.52
 417.455 132.716 4559.09
 416.054 135.581 4702.58
 414.663 138.558 4852.35
 413.28 141.653 5008.78
 411.907 144.873 5172.29
 410.544 148.225 5343.33
 409.189 151.717 5522.38
 407.843 155.357 5709.98
 406.505 159.154 5906.69
 405.177 163.117 6113.13
 403.857 167.257 6329.99
 402.546 171.584 6557.99
 401.243 176.111 6797.94
 399.949 180.851 7050.72
 398.663 185.817 7317.28
 397.385 191.025 7598.67
 396.115 196.491 7896.06
 394.854 202.233 8210.69
 393.6 208.271 8543.99
 392.355 214.626 8897.47
 391.117 221.321 9272.86
 389.887 228.382 9672.04
 388.665 235.838 10097.1
 387.45 243.718 10550.4
 386.243 252.056 11034.5
 385.044 260.892 11552.3
 383.852 270.265 12107.2
 382.667 280.223 12702.6
 381.49 290.816 13342.9
 380.319 302.103 14032.5
 379.156 314.146 14776.8
 378 327.019 15581.8
 376.851 340.803 16454.2
 375.71 355.589 17401.7
 374.574 371.482 18433.3
 373.446 388.6 19559
 372.325 407.079 20790.5
 371.21 427.075 22141.3
 370.102 448.767 23626.9
 369 472.363 25265.1
 367.905 498.105 27076.7
 366.817 526.275 29085.7
 365.735 557.203 31319.7
 364.659 591.28 33810.6
 363.59 628.963 36595
 362.527 670.794 39714.2
 361.47 717.408 43214.4
 360.419 769.549 47146
 359.374 828.081 51561.9
 358.336 893.982 56513.9
 357.303 968.326 62046.8
 356.276 1052.23 68189
 355.255 1146.72 74938.4
 354.24 1252.58 82244.4
 353.231 1370.01 89989.2
 352.228 1498.24 97973.7
 351.23 1635.15 105921
 350.238 1777 113508
 349.251 1918.4 120436
 348.27 2052.69 126509
 347.295 2172.47 131700
 346.324 2269.87 136139
 345.36 2336.16 139989
 344.4 2361.39 143176
 343.446 2336.46 145000
 342.498 2261.97 143912
 341.554 2159.91 138315
 340.616 2064.53 128446
 339.683 1994.89 116732
 338.754 1965.67 105898
 337.831 2022.3 97685.3
 336.913 2203.21 92317.8
 336 2473.48 88942
 335.092 2728.08 86898.6
 334.189 2860.22 85891.2
 333.291 2834.61 84955.1
 332.397 2672.95 82440.8
 331.508 2439.05 77971.4
 330.624 2190.69 72385.8
 329.745 1958.01 66539.5
 328.87 1750.21 60910.8
 328 1566.85 55687.4
 327.135 1405.28 50915.5
 326.274 1262.83 46586
