 Energy(eV)     Sca_U     Sca_D
 442.801 43.6563 1856.84
 441.225 44.4727 1907.63
 439.66 45.3179 1960.19
 438.107 46.1932 2014.6
 436.564 47.1002 2070.95
 435.032 48.0404 2129.35
 433.511 49.0153 2189.88
 432 50.0268 2252.68
 430.5 51.0766 2317.85
 429.011 52.1668 2385.52
 427.532 53.2994 2455.84
 426.062 54.4765 2528.93
 424.603 55.7006 2604.97
 423.154 56.9742 2684.11
 421.715 58.2998 2766.54
 420.285 59.6804 2852.45
 418.865 61.119 2942.04
 417.455 62.6189 3035.55
 416.054 64.1835 3133.21
 414.663 65.8166 3235.28
 413.28 67.5223 3342.04
 411.907 69.3047 3453.79
 410.544 71.1687 3570.87
 409.189 73.1191 3693.63
 407.843 75.1614 3822.46
 406.505 77.3015 3957.78
 405.177 79.5457 4100.05
 403.857 81.9008 4249.76
 402.546 84.3743 4407.47
 401.243 86.9743 4573.77
 399.949 89.7097 4749.31
 398.663 92.5899 4934.81
 397.385 95.6257 5131.06
 396.115 98.8284 5338.92
 394.854 102.211 5559.36
 393.6 105.787 5793.44
 392.355 109.571 6042.31
 391.117 113.582 6307.28
 389.887 117.837 6589.8
 388.665 122.357 6891.47
 387.45 127.166 7214.09
 386.243 132.289 7559.66
 385.044 137.755 7930.45
 383.852 143.596 8328.99
 382.667 149.848 8758.13
 381.49 156.554 9221.11
 380.319 163.758 9721.59
 379.156 171.514 10263.7
 378 179.882 10852.2
 376.851 188.931 11492.6
 375.71 198.74 12190.9
 374.574 209.4 12954.4
 373.446 221.016 13791.1
 372.325 233.712 14710.7
 371.21 247.63 15724
 370.102 262.938 16843.6
 369 279.834 18084.4
 367.905 298.551 19463.4
 366.817 319.364 21000.3
 365.735 342.602 22718.2
 364.659 368.652 24643.4
 363.59 397.978 26806.3
 362.527 431.126 29241.1
 361.47 468.74 31985.7
 360.419 511.57 35081.2
 359.374 560.469 38569.5
 358.336 616.381 42490
 357.303 680.295 46872.9
 356.276 753.147 51729.8
 355.255 835.658 57038.8
 354.24 928.067 62726.8
 353.231 1029.78 68650
 352.228 1139 74582.4
 351.23 1252.37 80224.5
 350.238 1365.11 85247.5
 349.251 1471.47 89377.6
 348.27 1565.81 92501.7
 347.295 1643.63 94752.1
 346.324 1701.92 96520
 345.36 1738.4 98372.5
 344.4 1749.8 100858
 343.446 1730.95 104142
 342.498 1678.4 107384
 341.554 1600.39 108225
 340.616 1516.33 104141
 339.683 1430.22 95625.1
 338.754 1337.8 85913.5
 337.831 1289.1 77946.9
 336.913 1401.2 72805.7
 336 1709.44 69402.9
 335.092 2061.75 67166.2
 334.189 2260.02 66713.1
 333.291 2208.63 66633.2
 332.397 1988.3 64706.8
 331.508 1730.07 60809.9
 330.624 1498.31 55979.2
 329.745 1305.24 51023.8
 328.87 1145.95 46329.2
 328 1013.24 42033.1
 327.135 901.208 38161.4
 326.274 805.515 34694.9
