 Energy(eV)     Sca_up     Sca_left
 442.801 6.15655 0.0416244
 441.225 6.31289 0.0431174
 439.66 6.47428 0.0446883
 438.107 6.64094 0.0463429
 436.564 6.81312 0.0480873
 435.032 6.99107 0.0499281
 433.511 7.17505 0.0518727
 432 7.36536 0.0539291
 430.5 7.5623 0.056106
 429.011 7.76619 0.0584132
 427.532 7.97737 0.0608613
 426.062 8.19621 0.0634619
 424.603 8.4231 0.066228
 423.154 8.65844 0.0691738
 421.715 8.90269 0.0723153
 420.285 9.15631 0.0756698
 418.865 9.41981 0.0792568
 417.455 9.69372 0.0830982
 416.054 9.97863 0.087218
 414.663 10.2751 0.0916434
 413.28 10.5839 0.0964047
 411.907 10.9057 0.101536
 410.544 11.2412 0.107075
 409.189 11.5913 0.113066
 407.843 11.9569 0.119558
 406.505 12.3388 0.126605
 405.177 12.7382 0.134271
 403.857 13.1561 0.142627
 402.546 13.5939 0.151757
 401.243 14.0526 0.161753
 399.949 14.5339 0.172724
 398.663 15.0391 0.184796
 397.385 15.5701 0.198112
 396.115 16.1285 0.212841
 394.854 16.7165 0.229179
 393.6 17.3361 0.247356
 392.355 17.9897 0.26764
 391.117 18.68 0.290352
 389.887 19.4097 0.315867
 388.665 20.1821 0.344637
 387.45 21.0005 0.3772
 386.243 21.8688 0.414205
 385.044 22.7911 0.456435
 383.852 23.7722 0.504847
 382.667 24.8171 0.56061
 381.49 25.9316 0.625165
 380.319 27.122 0.700304
 379.156 28.3955 0.788263
 378 29.7601 0.89186
 376.851 31.2245 1.01468
 375.71 32.7988 1.1613
 374.574 34.4942 1.33766
 373.446 36.3232 1.55149
 372.325 38.3 1.81302
 371.21 40.4407 2.13584
 370.102 42.7632 2.53831
 369 45.2876 3.04544
 367.905 48.0366 3.69167
 366.817 51.0352 4.52505
 365.735 54.3103 5.61309
 364.659 57.8902 7.05135
 363.59 61.8019 8.97509
 362.527 66.0661 11.5739
 361.47 70.6861 15.1053
 360.419 75.6247 19.8946
 359.374 80.7552 26.286
 358.336 85.7634 34.4796
 357.303 89.9607 44.1941
 356.276 91.9855 54.2779
 355.255 89.6494 62.7874
 354.24 81.5571 67.9522
 353.231 72.7878 69.2574
 352.228 74.0541 67.6009
 351.23 86.5885 64.5682
 350.238 103.877 61.3914
 349.251 121.792 58.5952
 348.27 139.06 56.1509
 347.295 155.33 53.589
 346.324 170.227 50.0237
 345.36 182.993 44.3652
 344.4 192.404 36.1381
 343.446 197.075 26.6226
 342.498 196.093 18.6181
 341.554 189.533 14.4054
 340.616 179.065 13.968
 339.683 168.487 14.3039
 338.754 159.388 12.2785
 337.831 147.296 8.75655
 336.913 130.21 5.65772
 336 110.341 3.50476
 335.092 90.8895 2.12952
 334.189 75.9734 1.29282
 333.291 71.0384 0.838873
 332.397 79.0472 0.703645
 331.508 93.0124 0.883025
 330.624 101.065 1.41678
 329.745 99.7018 2.46036
 328.87 92.3329 4.25104
 328 82.7808 6.34337
 327.135 73.7661 7.1919
 326.274 67.7256 6.30092
