 Energy(eV)     Sca_U     Sca_D
 495.937 344.402 16073.9
 493.961 349.328 16545.4
 492.001 354.357 17031.8
 490.056 359.491 17533.5
 488.127 364.734 18051.1
 486.212 370.09 18585.5
 484.313 375.56 19137.1
 482.429 381.15 19706.9
 480.559 386.861 20295.5
 478.703 392.697 20903.8
 476.862 398.663 21532.8
 475.035 404.761 22183.3
 473.222 410.996 22856.5
 471.423 417.372 23553.5
 469.637 423.892 24275.6
 467.865 430.563 25024
 466.106 437.387 25800.2
 464.36 444.372 26605.9
 462.627 451.522 27442.7
 460.908 458.844 28312.6
 459.201 466.345 29217.7
 457.506 474.033 30160.2
 455.824 481.917 31142.6
 454.154 490.007 32167.9
 452.497 498.314 33239
 450.851 506.853 34359.5
 449.218 515.638 35533.1
 447.596 524.689 36764.1
 445.986 534.026 38057.2
 444.388 543.675 39417.7
 442.801 553.665 40851.5
 441.225 564.031 42365.3
 439.66 574.815 43966.4
 438.107 586.066 45663.2
 436.564 597.842 47465
 435.032 610.212 49382.1
 433.511 623.259 51426.3
 432 637.08 53610.4
 430.5 651.789 55949.1
 429.011 667.525 58458.4
 427.532 684.447 61156.1
 426.062 702.746 64061.5
 424.603 722.643 67195.9
 423.154 744.397 70581.8
 421.715 768.31 74243
 420.285 794.726 78203.9
 418.865 824.037 82488.6
 417.455 856.681 87119.4
 416.054 893.139 92115.2
 414.663 933.926 97488.2
 413.28 979.568 103241
 411.907 1030.58 109361
 410.544 1087.41 115817
 409.189 1150.41 122551
 407.843 1219.7 129474
 406.505 1295.16 136461
 405.177 1376.27 143348
 403.857 1462.1 149941
 402.546 1551.22 156016
 401.243 1641.77 161345
 399.949 1731.55 165715
 398.663 1818.2 168953
 397.385 1899.48 170952
 396.115 1973.48 171684
 394.854 2038.83 171206
 393.6 2094.83 169650
 392.355 2141.46 167205
 391.117 2179.28 164092
 389.887 2209.3 160540
 388.665 2232.8 156770
 387.45 2251.14 152975
 386.243 2265.69 149323
 385.044 2277.71 145948
 383.852 2288.28 142957
 382.667 2298.32 140431
 381.49 2308.54 138436
 380.319 2319.49 137026
 379.156 2331.57 136248
 378 2344.99 136149
 376.851 2359.84 136781
 375.71 2375.99 138201
 374.574 2393.08 140476
 373.446 2410.4 143683
 372.325 2426.75 147906
 371.21 2440.15 153226
 370.102 2447.51 159704
 369 2444.23 167338
 367.905 2423.83 175983
 366.817 2378.24 185192
 365.735 2299.79 193951
 364.659 2186.71 200407
 363.59 2051.03 202074
 362.527 1919.59 197158
 361.47 1817.56 186252
 360.419 1749.01 172074
 359.374 1699.41 157359
 358.336 1651.71 143570
 357.303 1595.01 131105
 356.276 1524.29 119893
 355.255 1437.5 109769
 354.24 1333.52 100635
 353.231 1211.73 92546.9
 352.228 1073.42 85809.8
 351.23 926.247 81119.7
 350.238 793.244 79606.4
 349.251 722.978 82270.4
 348.27 779.064 88288.9
 347.295 984.809 94048.1
 346.324 1288.28 96073.6
 345.36 1623.25 94117.7
 344.4 1968.58 90042.3
 343.446 2339.99 85829.8
 342.498 2759.09 83046.9
 341.554 3223.92 82931
 340.616 3680.34 86173.2
 339.683 4015.97 92204.9
 338.754 4118.65 98854.6
 337.831 3968.56 103543
 336.913 3648.82 105032
 336 3267.56 103679
 335.092 2897.57 100489
 334.189 2570.27 96362.8
 333.291 2292.05 91888.2
 332.397 2058.57 87388.7
 331.508 1862.41 83021
 330.624 1696.19 78848.8
 329.745 1553.63 74886.8
 328.87 1429.62 71125
 328 1320.1 67540.8
 327.135 1221.79 64105.1
 326.274 1131.97 60784.7
 325.418 1048.3 57543.2
 324.566 968.64 54343.7
 323.718 890.972 51158.5
 322.875 813.646 48001.8
 322.037 736.35 44996
 321.202 662.221 42342
 320.372 601.072 40094
 319.547 570.834 38822.7
 318.725 579.531 39807.4
 317.908 605.362 42169.6
 317.095 628.884 43456.3
 316.286 657.822 43161.8
 315.481 693.233 41927.8
 314.681 724.019 40503.5
 313.884 729.523 39408.7
 313.091 701.242 38444.3
 312.303 660.781 37213.8
 311.518 623.537 35784.7
 310.737 591.906 34497.4
 309.96 563.878 33699.1
