 Energy(eV)     Sca_U     Sca_D
 495.937 8803.55 164631
 493.961 10972.2 209465
 492.001 17085.8 350656
 490.056 30530.2 813497
 488.127 5763.87 265510
 486.212 1968.65 117071
 484.313 1338.63 79108.5
 482.429 971.689 62108.3
 480.559 715.326 52939
 478.703 583.737 47660.4
 476.862 570.768 43465
 475.035 629.622 39803.7
 473.222 735.261 37638.5
 471.423 892.472 38358.4
 469.637 1126.26 43809.5
 467.865 1468.55 56353.4
 466.106 1934.51 78515.9
 464.36 2491.99 112029
 462.627 3056.08 154066
 460.908 3545.16 185805
 459.201 3880.62 180776
 457.506 4035.91 160170
 455.824 4095.26 154153
 454.154 4144.79 170184
 452.497 4351.99 219507
 450.851 5344.48 340390
 449.218 7638.09 475463
 447.596 5824.04 274568
 445.986 3469.43 145699
 444.388 2296.16 98675.4
 442.801 1766.92 76351.4
 441.225 1583.79 64177.6
 439.66 1614.14 57881.4
 438.107 1839.95 56423.2
 436.564 2380.97 61588.2
 435.032 3669.22 81855.1
 433.511 7463.76 163619
 432 46432.2 1.29178e+06
 430.5 41368 1.51929e+06
 429.011 6520.3 210848
 427.532 4222.72 99815
 426.062 3330.19 68936.6
 424.603 2518.4 54489.6
 423.154 1787.14 45246.5
 421.715 1230.09 39353.2
 420.285 902.856 36826
 418.865 751.28 35777.6
 417.455 658.101 33576.2
 416.054 589.319 31282.5
 414.663 551.312 31357.4
 413.28 523.15 32794.3
 411.907 486.779 32721.3
 410.544 450.843 30543.5
 409.189 436.149 27543
 407.843 443.7 24673.6
 406.505 448.652 22663.1
 405.177 445.771 22413.8
 403.857 430.679 23661.2
 402.546 400.348 25827.4
 401.243 371.962 28941.8
 399.949 363.822 32852.9
 398.663 379.342 36829.2
 397.385 407.632 40073.6
 396.115 444.441 42137.3
 394.854 507.057 42893.8
 393.6 636.904 42685.8
 392.355 880.006 42604.2
 391.117 1165.5 43616
 389.887 1313.79 44466.7
 388.665 1246.4 43741.8
 387.45 968.155 41901.7
 386.243 614.279 39332.7
 385.044 448.56 36368.9
 383.852 556.935 34561.4
 382.667 625.418 34815.3
 381.49 466.043 35280
 380.319 435.719 35297.2
 379.156 935.052 40026.6
 378 1348.47 48248.7
 376.851 1582.73 61677.5
 375.71 1126.96 56023.7
 374.574 777.837 46635.5
 373.446 695.87 40291.5
 372.325 881.84 41647.3
 371.21 1152.7 49979.1
 370.102 1398.08 58145.9
 369 1560.29 60701
 367.905 1552.83 58692.6
 366.817 1418.84 55301.6
 365.735 1216.9 51865.9
 364.659 979.652 49420.2
 363.59 789.328 48149.8
 362.527 741.083 47938.5
 361.47 844.763 48868.9
 360.419 915.388 50031.2
 359.374 751.343 49347.1
 358.336 509.529 47015.7
 357.303 391.382 44427.4
 356.276 325.113 41385
 355.255 253.908 38924.8
 354.24 231.786 37962.2
