 Energy(eV)     Sca_U     Sca_D
 495.937 0.0288197 3.9782
 494.453 0.0295825 4.08348
 492.979 0.03037 4.19216
 491.513 0.0311833 4.3044
 490.056 0.0320233 4.42034
 488.607 0.0328914 4.54013
 487.168 0.0337885 4.66394
 485.736 0.0347161 4.79194
 484.313 0.0356754 4.92431
 482.898 0.0366678 5.06126
 481.492 0.0376948 5.20297
 480.093 0.0387579 5.34967
 478.703 0.0398589 5.50159
 477.321 0.0409995 5.65895
 475.947 0.0421814 5.82202
 474.58 0.0434066 5.99106
 473.222 0.0446773 6.16636
 471.871 0.0459956 6.34822
 470.528 0.0473638 6.53696
 469.193 0.0487844 6.73291
 467.865 0.05026 6.93644
 466.544 0.0517934 7.14793
 465.231 0.0533876 7.36779
 463.926 0.0550457 7.59645
 462.627 0.0567711 7.83437
 461.336 0.0585673 8.08204
 460.052 0.0604382 8.33999
 458.776 0.0623879 8.60877
 457.506 0.0644208 8.88899
 456.243 0.0665415 9.18129
 454.988 0.068755 9.48636
 453.739 0.0710667 9.80492
 452.497 0.0734824 10.1378
 451.262 0.0760082 10.4857
 450.033 0.0786509 10.8498
 448.811 0.0814176 11.2308
 447.596 0.084316 11.6299
 446.388 0.0873545 12.0483
 445.185 0.0905421 12.4871
 443.99 0.0938885 12.9476
 442.801 0.0974043 13.4314
 441.618 0.101101 13.9399
 440.441 0.104991 14.4749
 439.271 0.109088 15.0382
 438.107 0.113406 15.6318
 436.949 0.117962 16.2578
 435.797 0.122774 16.9187
 434.651 0.12786 17.6171
 433.511 0.133241 18.3557
 432.377 0.138942 19.1377
 431.249 0.144986 19.9666
 430.127 0.151404 20.8461
 429.011 0.158225 21.7804
 427.9 0.165484 22.7741
 426.796 0.173219 23.8322
 425.697 0.181474 24.9604
 424.603 0.190295 26.165
 423.515 0.199736 27.453
 422.433 0.209856 28.8322
 421.356 0.220724 30.3114
 420.285 0.232414 31.9005
 419.219 0.245013 33.6105
 418.159 0.25862 35.4539
 417.104 0.273346 37.4451
 416.054 0.289321 39.6001
 415.01 0.306693 41.9375
 413.97 0.325637 44.4784
 412.936 0.346353 47.2472
 411.907 0.369082 50.272
 410.884 0.394107 53.5856
 409.865 0.421768 57.2261
 408.851 0.45248 61.2385
 407.843 0.48675 65.6757
 406.839 0.525217 70.6009
 405.84 0.56869 76.0896
 404.846 0.618226 82.2333
 403.857 0.675237 89.1438
 402.873 0.741665 96.9589
 401.893 0.820265 105.85
 400.919 0.915054 116.032
 399.949 1.03198 127.773
 398.984 1.17958 141.392
 398.023 1.36844 157.223
 397.067 1.60459 175.462
 396.115 1.87021 195.953
 395.169 2.1116 218.486
 394.226 2.29425 244.055
 393.288 2.45864 274.997
 392.355 2.66791 313.677
 391.426 2.96151 362.302
 390.501 3.3639 423.579
 389.581 3.90068 501.255
 388.665 4.6067 600.511
 387.753 5.52932 728.253
 386.846 6.72811 893.006
 385.943 8.26441 1103.33
 385.044 10.1615 1362.23
 384.149 12.3057 1653.55
 383.259 14.2908 1921.21
 382.372 15.39 2067.33
 381.49 15.0027 2013.88
 380.611 13.2967 1787.09
 379.737 11.0205 1488.44
 378.867 8.75982 1192.45
 378 6.76913 928.66
 377.138 5.14846 710.429
 376.28 3.89881 540.053
 375.425 2.96458 411.634
 374.574 2.28329 317.442
 373.728 1.81113 251.785
 372.885 1.5324 212.584
 372.045 1.46321 202
 371.21 1.64279 225.304
 370.378 2.07678 283.201
 369.55 2.61416 355.143
 368.726 2.95011 399.738
 367.905 2.92961 395.917
 367.088 2.66937 359.455
 366.275 2.338 313.139
 365.465 2.02679 269.364
 364.659 1.76248 232.158
 363.857 1.5409 201.838
 363.058 1.35188 177.591
 362.262 1.19363 158.647
 361.47 1.06512 143.879
 360.681 0.956827 131.153
 359.896 0.859371 118.906
 359.114 0.770625 107.132
 358.336 0.691113 96.2685
 357.561 0.620592 86.4985
 356.789 0.558058 77.7801
 356.021 0.502314 69.9861
 355.255 0.452255 62.9791
 354.494 0.406975 56.64
 353.735 0.365813 50.8817
 352.98 0.328418 45.6622
 352.228 0.294876 41.0065
 351.479 0.265913 37.0363
 350.733 0.243133 33.9973
 349.991 0.229551 32.313
 349.251 0.230628 32.7075
 348.515 0.253145 36.0714
 347.782 0.295557 42.1737
 347.051 0.337348 48.1341
 346.324 0.358411 51.0938
 345.6 0.364897 51.8832
 344.879 0.376019 53.1892
 344.161 0.398209 55.9669
 343.446 0.417692 58.4318
 342.734 0.421602 58.881
 342.025 0.410599 57.3633
 341.319 0.389696 54.4922
 340.616 0.364242 50.9749
 339.915 0.338887 47.4602
 339.218 0.316373 44.3361
 338.523 0.297591 41.7258
 337.831 0.281761 39.5184
 337.142 0.267342 37.5022
 336.456 0.253503 35.5645
 335.773 0.240254 33.7083
 335.092 0.22785 31.9709
 334.414 0.21653 30.3864
 333.739 0.206478 28.9801
 333.067 0.197728 27.7562
 332.397 0.189961 26.6698
 331.73 0.182664 25.6491
 331.066 0.175644 24.6667
 330.404 0.168957 23.7309
 329.745 0.162596 22.8404
 329.089 0.156517 21.9895
 328.435 0.150732 21.1799
 327.784 0.145263 20.4144
 327.135 0.140106 19.6927
 326.489 0.135246 19.0126
 325.845 0.130663 18.3711
 325.204 0.126336 17.7656
 324.566 0.122245 17.1931
 323.93 0.118372 16.6509
 323.296 0.114698 16.1367
 322.665 0.111208 15.6482
 322.037 0.107887 15.1835
 321.411 0.104724 14.7408
 320.787 0.101707 14.3185
 320.166 0.0988267 13.9154
 319.547 0.0960732 13.53
 318.93 0.0934385 13.1612
 318.316 0.0909151 12.808
 317.704 0.0884961 12.4694
 317.095 0.0861752 12.1446
 316.488 0.0839466 11.8326
 315.883 0.081805 11.5328
 315.281 0.0797455 11.2446
 314.681 0.0777636 10.9671
 314.083 0.0758551 10.7
 313.487 0.0740161 10.4425
 312.894 0.0722429 10.1943
 312.303 0.0705323 9.95482
 311.714 0.0688811 9.72365
 311.127 0.0672864 9.50039
 310.543 0.0657454 9.28465
 309.96 0.0642557 9.07607
