 Energy(eV)     Sca_U     Sca_D
 495.937 108.759 1851.33
 493.961 112.233 1927.83
 492.001 115.856 2008.63
 490.056 119.635 2094.08
 488.127 123.581 2184.52
 486.212 127.704 2280.35
 484.313 132.014 2382.01
 482.429 136.524 2489.96
 480.559 141.247 2604.74
 478.703 146.196 2726.93
 476.862 151.388 2857.18
 475.035 156.838 2996.2
 473.222 162.565 3144.8
 471.423 168.589 3303.88
 469.637 174.931 3474.43
 467.865 181.615 3657.59
 466.106 188.668 3854.62
 464.36 196.117 4066.95
 462.627 203.995 4296.21
 460.908 212.337 4544.23
 459.201 221.18 4813.12
 457.506 230.569 5105.26
 455.824 240.551 5423.4
 454.154 251.18 5770.69
 452.497 262.513 6150.77
 450.851 274.62 6567.84
 449.218 287.573 7026.79
 447.596 301.456 7533.28
 445.986 316.364 8093.91
 444.388 332.403 8716.39
 442.801 349.689 9409.72
 441.225 368.355 10184.4
 439.66 388.547 11052.5
 438.107 410.424 12028
 436.564 434.153 13127
 435.032 459.907 14367.2
 433.511 487.845 15767.6
 432 518.089 17347.4
 430.5 550.677 19123.4
 429.011 585.482 21106.1
 427.532 622.084 23293
 426.062 659.572 25659.1
 424.603 696.244 28147
 423.154 729.189 30658.8
 421.715 753.69 33059.3
 420.285 762.366 35190.7
 418.865 744.103 36871.5
 417.455 684.591 37800.5
 416.054 576.79 37341
 414.663 450.793 34719.2
 413.28 379.283 30376.7
 411.907 400.089 26306.2
 410.544 483.865 23946.7
 409.189 592.649 23463
 407.843 708.402 24560.4
 406.505 826.125 26958.3
 405.177 944.803 30425.7
 403.857 1062.7 34682.4
 402.546 1175.07 39290.4
 401.243 1273.41 43600.8
 399.949 1346.72 46839
 398.663 1384.87 48351.4
 397.385 1382.46 47886.6
 396.115 1340.42 45698
 394.854 1265.54 42431.2
 393.6 1172.39 38974.9
 392.355 1091.45 36295.1
 391.117 1061.33 34647
 389.887 1070.18 32852.3
 388.665 1056.62 30123.2
 387.45 997.095 26881.8
 386.243 903.72 23600.7
 385.044 791.572 20473.4
 383.852 672.784 17568.3
 382.667 561.618 14957.8
 381.49 480.638 12797.7
 380.319 459.098 11321.6
 379.156 507.716 10625.5
 378 588.214 10413.2
 376.851 643.404 10310.8
 375.71 652.512 10429.4
 374.574 629.038 11142
 373.446 591.234 12175.1
 372.325 551.637 13216.2
 371.21 520.159 14621.5
 370.102 503.228 16157.1
 369 515.963 17370.3
 367.905 554.032 17823.9
 366.817 572.701 17137
 365.735 556.415 15757.1
 364.659 520.673 14252.6
 363.59 478.931 12863.3
 362.527 437.252 11637.3
 361.47 397.727 10561
 360.419 360.821 9607.58
 359.374 326.393 8750.88
 358.336 294.093 7968.81
 357.303 263.541 7243.84
 356.276 234.467 6564.71
 355.255 206.981 5932.73
 354.24 182.126 5375.31
 353.231 162.095 4948.36
 352.228 148.916 4705.89
 351.23 146.005 4735.07
 350.238 159.284 5137.33
 349.251 182.475 5726.96
 348.27 194.776 6011.16
 347.295 196.042 5964.44
 346.324 200.719 5853.59
 345.36 209.174 5757.69
 344.4 215.353 5677.45
 343.446 218.044 5614.27
 342.498 213.161 5468.61
 341.554 201.893 5228.45
 340.616 189.185 4975.67
 339.683 178.452 4777.12
 338.754 170.172 4639.05
 337.831 162.358 4513.18
 336.913 153.881 4361.74
 336 145.217 4186.96
 335.092 136.99 4008.48
 334.189 129.582 3842.35
 333.291 123.258 3696.78
 332.397 117.725 3566.74
 331.508 112.411 3441.71
 330.624 107.289 3321.13
 329.745 102.391 3205.62
 328.87 97.684 3094.58
 328 93.2123 2988.68
 327.135 89.0019 2888.29
 326.274 85.0482 2793.29
 325.418 81.3369 2703.4
 324.566 77.8509 2618.26
 323.718 74.5723 2537.52
 322.875 71.4836 2460.81
 322.037 68.5693 2387.81
 321.202 65.8154 2318.23
 320.372 63.21 2251.83
 319.547 60.7418 2188.38
 318.725 58.4012 2127.68
 317.908 56.179 2069.55
 317.095 54.0674 2013.82
 316.286 52.0589 1960.34
 315.481 50.1469 1908.98
 314.681 48.3253 1859.62
 313.884 46.5885 1812.12
 313.091 44.9315 1766.4
 312.303 43.3494 1722.35
 311.518 41.8379 1679.89
 310.737 40.393 1638.92
 309.96 39.011 1599.38
