 Energy(eV)     Sca_U     Sca_D
 495.937 8.80392 7423.2
 493.961 9.05127 7701.58
 492.001 9.32494 7994.63
 490.056 9.62914 8303.39
 488.127 9.96873 8628.97
 486.212 10.3493 8972.6
 484.313 10.7772 9335.62
 482.429 11.2599 9719.46
 480.559 11.8059 10125.7
 478.703 12.4251 10556.1
 476.862 13.1288 11012.4
 475.035 13.93 11496.8
 473.222 14.8441 12011.5
 471.423 15.8883 12558.9
 469.637 17.0831 13141.7
 467.865 18.4518 13762.9
 466.106 20.0216 14425.5
 464.36 21.8242 15133.3
 462.627 23.896 15889.9
 460.908 26.2798 16699.7
 459.201 29.0251 17567.4
 457.506 32.1897 18497.9
 455.824 35.8408 19496.8
 454.154 40.057 20570.4
 452.497 44.93 21725.2
 450.851 50.5668 22968.7
 449.218 57.0926 24308.6
 447.596 64.6534 25753.8
 445.986 73.42 27313.5
 444.388 83.5917 28998
 442.801 95.401 30817.9
 441.225 109.119 32784.9
 439.66 125.06 34911.2
 438.107 143.588 37209.3
 436.564 165.126 39692.2
 435.032 190.158 42373
 433.511 219.236 45264.5
 432 252.988 48378.6
 430.5 292.12 51726.2
 429.011 337.417 55316
 427.532 389.74 59154.1
 426.062 450.023 63243.2
 424.603 519.254 67581.9
 423.154 598.469 72164.3
 421.715 688.719 76979.8
 420.285 791.059 82013.8
 418.865 906.523 87249
 417.455 1036.12 92667.6
 416.054 1180.84 98254.5
 414.663 1341.7 104001
 413.28 1519.8 109908
 411.907 1716.39 115989
 410.544 1932.88 122264
 409.189 2170.79 128753
 407.843 2431.28 135453
 406.505 2714.26 142289
 405.177 3016.58 149053
 403.857 3329.37 155326
 402.546 3635.24 160427
 401.243 3907.57 163481
 399.949 4114.91 163693
 398.663 4231.14 160760
 397.385 4245.02 155171
 396.115 4160.11 148129
 394.854 3983.69 141143
 393.6 3715.46 135452
 392.355 3352.63 131283
 391.117 2910.58 127431
 389.887 2426.14 122549
 388.665 1939.29 116959
 387.45 1490.75 112185
 386.243 1130.6 109184
 385.044 898.952 107483
 383.852 788.106 105953
 382.667 744.149 103797
 381.49 716.748 100600
 380.319 683.675 96377.8
 379.156 639.286 91487.5
 378 585.698 86345.3
 376.851 528.443 81251.2
 375.71 472.561 76364.8
 374.574 421.007 71750.2
 373.446 374.963 67422.8
 372.325 334.569 63377.2
 371.21 299.475 59600.3
 370.102 269.14 56076.5
 369 242.983 52790
 367.905 220.448 49725.2
 366.817 201.036 46866.6
 365.735 184.306 44199.3
 364.659 169.876 41708.7
 363.59 157.42 39380.3
 362.527 146.661 37200.3
 361.47 137.363 35154.8
 360.419 129.329 33230.2
 359.374 122.394 31412.9
 358.336 116.418 29689.1
 357.303 111.292 28044.9
 356.276 106.926 26466.6
 355.255 103.255 24942.7
 354.24 100.238 23471.4
