 Energy(eV)     Sca_U     Sca_D
 495.937 0.28185 3.72517
 493.961 0.291911 3.85725
 492.001 0.302412 3.99508
 490.056 0.313376 4.13898
 488.127 0.324831 4.2893
 486.212 0.336805 4.44639
 484.313 0.349328 4.61066
 482.429 0.362432 4.78253
 480.559 0.376152 4.96245
 478.703 0.390525 5.15092
 476.862 0.405593 5.34846
 475.035 0.421398 5.55563
 473.222 0.437987 5.77305
 471.423 0.455411 6.00139
 469.637 0.473724 6.24135
 467.865 0.492987 6.49372
 466.106 0.513263 6.75932
 464.36 0.534622 7.03909
 462.627 0.557139 7.334
 460.908 0.580898 7.64514
 459.201 0.605989 7.97368
 457.506 0.632509 8.32091
 455.824 0.660566 8.68823
 454.154 0.690279 9.07719
 452.497 0.721775 9.48947
 450.851 0.755196 9.92693
 449.218 0.7907 10.3916
 447.596 0.828458 10.8858
 445.986 0.868661 11.4119
 444.388 0.911519 11.9728
 442.801 0.957267 12.5715
 441.225 1.00616 13.2114
 439.66 1.0585 13.8964
 438.107 1.1146 14.6306
 436.564 1.17483 15.4188
 435.032 1.23959 16.2665
 433.511 1.30934 17.1796
 432 1.38461 18.165
 430.5 1.46597 19.2303
 429.011 1.5541 20.3845
 427.532 1.64976 21.6376
 426.062 1.75382 23.001
 424.603 1.86728 24.488
 423.154 1.99129 26.1139
 421.715 2.12719 27.8965
 420.285 2.27654 29.8564
 418.865 2.44114 32.0177
 417.455 2.62313 34.4092
 416.054 2.82502 37.0644
 414.663 3.04981 40.0237
 413.28 3.30105 43.3355
 411.907 3.58305 47.058
 410.544 3.90098 51.2627
 409.189 4.26118 56.0373
 407.843 4.67144 61.491
 406.505 5.14142 67.7613
 405.177 5.68321 75.0239
 403.857 6.31214 83.5069
 402.546 7.04783 93.5119
 401.243 7.91579 105.445
 399.949 8.94973 119.855
 398.663 10.1951 137.451
 397.385 11.714 158.922
 396.115 13.5905 184.232
 394.854 15.932 212.817
 393.6 18.8896 247.443
 392.355 22.7037 293.641
 391.117 27.7318 356.512
 389.887 34.5032 442.456
 388.665 43.8095 561.308
 387.45 56.8024 727.7
 386.243 74.9556 960.507
 385.044 99.3215 1273.07
 383.852 127.616 1635.02
 382.667 148.894 1904.78
 381.49 147.223 1881.65
 380.319 123.417 1579.76
 379.156 93.792 1204.18
 378 67.5016 867.927
 376.851 47.1539 606.047
 375.71 32.7716 420.748
 374.574 23.1223 296.603
 373.446 17.1718 220.286
 372.325 14.6918 188.816
 371.21 16.3419 210.605
 370.102 22.2855 287.476
 369 28.3028 364.693
 367.905 28.7714 370.076
 366.817 25.0515 321.775
 365.735 20.6163 264.822
 364.659 16.846 217.074
 363.59 13.9335 180.665
 362.527 11.801 153.861
 361.47 10.2916 134.653
 360.419 9.07225 118.894
 359.374 7.92739 103.846
 358.336 6.88568 90.0739
 357.303 5.97934 78.1006
 356.276 5.19841 67.8119
 355.255 4.52075 58.9106
 354.24 3.92636 51.1256
 353.231 3.40225 44.2805
 352.228 2.94706 38.3543
 351.23 2.57914 33.5819
 350.238 2.34713 30.5723
 349.251 2.35215 30.586
 348.27 2.73745 35.4171
 347.295 3.36795 43.358
 346.324 3.71568 47.7365
 345.36 3.79392 48.7251
 344.4 3.99839 51.3428
 343.446 4.25323 54.5962
 342.498 4.26263 54.7217
 341.554 4.04209 51.913
 340.616 3.70786 47.6313
 339.683 3.37206 43.3231
 338.754 3.09295 39.752
 337.831 2.87182 36.9283
 336.913 2.67727 34.4344
 336 2.49345 32.0669
 335.092 2.32364 29.8751
 334.189 2.17354 27.9365
 333.291 2.04679 26.2992
 332.397 1.94 24.9198
 331.508 1.84205 23.6554
 330.624 1.74935 22.4592
 329.745 1.66261 21.3404
 328.87 1.58103 20.2884
 328 1.50489 19.3068
 327.135 1.43441 18.3984
 326.274 1.36927 17.559
 325.418 1.30899 16.7824
 324.566 1.25309 16.0622
 323.718 1.20109 15.3926
 322.875 1.1526 14.7681
 322.037 1.10724 14.1841
 321.202 1.06472 13.6368
 320.372 1.02478 13.1227
 319.547 0.987179 12.6389
 318.725 0.951722 12.1827
 317.908 0.918229 11.7518
 317.095 0.886541 11.3442
 316.286 0.856518 10.9581
 315.481 0.828033 10.5918
 314.681 0.800973 10.2439
 313.884 0.775237 9.91309
 313.091 0.750732 9.59813
 312.303 0.727375 9.29798
 311.518 0.705089 9.01163
 310.737 0.683804 8.7382
 309.96 0.663459 8.47687
