 Energy(eV)     Sca_U     Sca_D
 495.937 842.256 74783.4
 493.961 863.26 77253.6
 492.001 885.236 79825.2
 490.056 908.422 82512.4
 488.127 933.103 85331.3
 486.212 959.611 88300.3
 484.313 988.337 91440.5
 482.429 1019.73 94775.1
 480.559 1054.29 98330.1
 478.703 1092.6 102134
 476.862 1135.31 106217
 475.035 1183.11 110612
 473.222 1236.77 115352
 471.423 1297.1 120472
 469.637 1364.95 126002
 467.865 1441.15 131973
 466.106 1526.5 138408
 464.36 1621.71 145321
 462.627 1727.31 152716
 460.908 1843.61 160576
 459.201 1970.56 168865
 457.506 2107.67 177517
 455.824 2253.94 186438
 454.154 2407.77 195498
 452.497 2567.03 204534
 450.851 2729.1 213358
 449.218 2891.18 221760
 447.596 3050.64 229528
 445.986 3205.54 236470
 444.388 3355.3 242435
 442.801 3501.3 247335
 441.225 3647.48 251173
 439.66 3800.53 254046
 438.107 3969.83 256152
 436.564 4166.74 257779
 435.032 4403.52 259272
 433.511 4692.23 260990
 432 5044.11 263240
 430.5 5469.81 266173
 429.011 5979.43 269650
 427.532 6578.81 273052
 426.062 7257.68 275164
 424.603 7972.31 274359
 423.154 8641.14 269315
 421.715 9172.4 259896
 420.285 9507.68 247319
 418.865 9639.42 233405
 417.455 9593.27 219732
 416.054 9402.94 207279
 414.663 9098.71 196498
 413.28 8709.12 187494
 411.907 8267.66 180180
 410.544 7816.44 174354
 409.189 7401.33 169712
 407.843 7056.69 165833
 406.505 6788.72 162242
 405.177 6575.18 158561
 403.857 6383.75 154617
 402.546 6190.42 150427
 401.243 5984.65 146088
 399.949 5765.31 141709
 398.663 5535.4 137369
 397.385 5298.82 133120
 396.115 5058.99 128990
 394.854 4818.56 124992
 393.6 4579.51 121131
 392.355 4343.36 117404
 391.117 4111.34 113807
 389.887 3884.51 110334
 388.665 3663.86 106978
 387.45 3450.31 103732
 386.243 3244.73 100590
 385.044 3047.92 97543.4
 383.852 2860.56 94588
 382.667 2683.25 91717.8
 381.49 2516.42 88927.6
 380.319 2360.34 86212.7
 379.156 2215.13 83568.8
 378 2080.72 80991.3
 376.851 1956.91 78476.1
 375.71 1843.36 76018.6
 374.574 1739.62 73614
 373.446 1645.17 71257
 372.325 1559.4 68941.6
 371.21 1481.69 66661.3
 370.102 1411.41 64408.4
 369 1347.89 62174.3
 367.905 1290.53 59949.3
 366.817 1238.7 57723.6
 365.735 1191.82 55488.5
 364.659 1149.29 53241.2
 363.59 1110.44 50996.7
 362.527 1074.3 48817.5
 361.47 1039.1 46890.9
 360.419 1000.88 45704.3
 359.374 950.301 46303
 358.336 872.179 49911.3
 357.303 779.065 55534.8
 356.276 746.911 59555.1
 355.255 797.893 60491.5
 354.24 886.521 59506.6
