 Energy(eV)     Sca_U     Sca_D
 495.937 781.356 56695.1
 493.961 825.496 59198.8
 492.001 872.218 61820.1
 490.056 921.746 64563.6
 488.127 974.334 67433.8
 486.212 1030.28 70435.9
 484.313 1089.92 73575.5
 482.429 1153.65 76859
 480.559 1221.93 80293.9
 478.703 1295.31 83889
 476.862 1374.41 87654.9
 475.035 1459.99 91604.4
 473.222 1552.91 95753.4
 471.423 1654.21 100122
 469.637 1765.11 104733
 467.865 1887.04 109618
 466.106 2021.69 114813
 464.36 2171.02 120365
 462.627 2337.34 126330
 460.908 2523.33 132776
 459.201 2732.03 139787
 457.506 2966.87 147459
 455.824 3231.62 155906
 454.154 3530.23 165258
 452.497 3866.58 175651
 450.851 4244.01 187225
 449.218 4664.57 200102
 447.596 5127.89 214359
 445.986 5629.71 229987
 444.388 6160.08 246838
 442.801 6701.63 264567
 441.225 7228.66 282577
 439.66 7707.95 300019
 438.107 8102.31 315843
 436.564 8376.85 328944
 435.032 8506.78 338373
 433.511 8483.71 343533
 432 8317.98 344299
 430.5 8035.77 341013
 429.011 7672.54 334352
 427.532 7265.41 325164
 426.062 6846.76 314309
 424.603 6440.15 302558
 423.154 6058.51 290540
 421.715 5704.25 278734
 420.285 5371.4 267460
 418.865 5049.88 256889
 417.455 4731 247055
 416.054 4411.68 237891
 414.663 4095.1 229282
 413.28 3788.18 221114
 411.907 3498.16 213300
 410.544 3230.3 205786
 409.189 2987.22 198539
 407.843 2769.26 191541
 406.505 2575.23 184779
 405.177 2403.02 178242
 403.857 2250.13 171919
 402.546 2113.92 165799
 401.243 1991.86 159872
 399.949 1881.58 154130
 398.663 1781 148565
 397.385 1688.35 143172
 396.115 1602.19 137948
 394.854 1521.43 132892
 393.6 1445.27 128003
 392.355 1373.18 123281
 391.117 1304.79 118725
 389.887 1239.91 114336
 388.665 1178.4 110112
 387.45 1120.18 106050
 386.243 1065.17 102149
 385.044 1013.32 98404.6
 383.852 964.542 94813.3
 382.667 918.766 91371.1
 381.49 875.912 88073.7
 380.319 835.908 84916.9
 379.156 798.694 81896.6
 378 764.232 79009
 376.851 732.514 76250.5
 375.71 703.573 73618.1
 374.574 677.495 71109.4
 373.446 654.439 68723.2
 372.325 634.66 66459.4
 371.21 618.54 64320.2
 370.102 606.647 62310.5
 369 599.803 60440.3
 367.905 599.206 58726.5
 366.817 606.601 57197.4
 365.735 624.54 55899.8
 364.659 656.767 54910.3
 363.59 708.7 54353.5
 362.527 787.852 54428.7
 361.47 903.351 55439.5
 360.419 1061.92 57784.5
 359.374 1254.31 61780.3
 358.336 1428.42 67098.7
 357.303 1482.1 72076.5
 356.276 1354.77 74448.1
 355.255 1136.41 73538.9
 354.24 951.971 70449.6
