 Energy(eV)     Sca_U     Sca_D
 495.937 23.6823 1577.8
 493.961 24.3927 1634.59
 492.001 25.1339 1694.04
 490.056 25.9076 1756.33
 488.127 26.7157 1821.61
 486.212 27.56 1890.08
 484.313 28.4427 1961.93
 482.429 29.366 2037.39
 480.559 30.3323 2116.67
 478.703 31.3443 2200.04
 476.862 32.4049 2287.76
 475.035 33.5169 2380.11
 473.222 34.6839 2477.43
 471.423 35.9092 2580.04
 469.637 37.1969 2688.33
 467.865 38.5511 2802.69
 466.106 39.9765 2923.57
 464.36 41.478 3051.43
 462.627 43.061 3186.82
 460.908 44.7316 3330.29
 459.201 46.4962 3482.47
 457.506 48.3619 3644.05
 455.824 50.3366 3815.78
 454.154 52.4288 3998.49
 452.497 54.648 4193.09
 450.851 57.0046 4400.59
 449.218 59.5102 4622.09
 447.596 62.1774 4858.85
 445.986 65.0203 5112.21
 444.388 68.0545 5383.71
 442.801 71.2977 5675.05
 441.225 74.769 5988.11
 439.66 78.4902 6325.03
 438.107 82.4855 6688.18
 436.564 86.7823 7080.25
 435.032 91.4111 7504.25
 433.511 96.4063 7963.61
 432 101.807 8462.2
 430.5 107.657 9004.43
 429.011 114.007 9595.32
 427.532 120.913 10240.6
 426.062 128.441 10947
 424.603 136.664 11721.9
 423.154 145.668 12574.4
 421.715 155.552 13514.4
 420.285 166.428 14554.1
 418.865 178.427 15707.3
 417.455 191.703 16990.6
 416.054 206.434 18423.5
 414.663 222.83 20029.1
 413.28 241.139 21835.3
 411.907 261.658 23875.8
 410.544 284.743 26191.3
 409.189 310.832 28831.6
 407.843 340.468 31857.3
 406.505 374.341 35342.3
 405.177 413.342 39374.7
 403.857 458.651 44054.7
 402.546 511.835 49482.7
 401.243 574.929 55725.6
 399.949 650.364 62737.3
 398.663 740.366 70205.3
 397.385 845.264 77342.3
 396.115 960.502 82807.3
 394.854 1074.46 85159.2
 393.6 1171.53 83921.3
 392.355 1240.36 80261.1
 391.117 1278.53 76288.8
 389.887 1289.15 73718.8
 388.665 1275.82 73115.3
 387.45 1242.23 73788.1
 386.243 1196.56 73941.5
 385.044 1152.94 71480.3
 383.852 1114.03 65921.7
 382.667 1063.14 58657.5
 381.49 1001.15 51233.8
 380.319 960.119 45045.2
 379.156 976.977 41536.7
 378 1072.3 40727.2
 376.851 1209.98 41457.3
 375.71 1295.15 43698.8
 374.574 1255.24 45588.6
 373.446 1118.31 45048.8
 372.325 960.412 42562.6
 371.21 820.84 39305.1
 370.102 706.378 35969.7
 369 613.517 32838
 367.905 537.561 29995.3
 366.817 474.685 27448.3
 365.735 422.043 25175.9
 364.659 377.532 23148.8
 363.59 339.574 21337.5
 362.527 306.963 19714.7
 361.47 278.758 18256.3
 360.419 254.213 16941.4
 359.374 232.734 15751.7
 358.336 213.837 14671.2
 357.303 197.126 13686.2
 356.276 182.276 12784.5
 355.255 169.014 11955.1
 354.24 157.109 11188.4
