 Energy(eV)     Sca_U     Sca_D
 495.937 3.34386 1598.14
 493.961 3.40315 1655.58
 492.001 3.4643 1715.71
 490.056 3.52748 1778.71
 488.127 3.59283 1844.73
 486.212 3.66054 1913.98
 484.313 3.73082 1986.65
 482.429 3.8039 2062.95
 480.559 3.88002 2143.13
 478.703 3.95946 2227.42
 476.862 4.04255 2316.12
 475.035 4.12962 2409.5
 473.222 4.22108 2507.89
 471.423 4.31736 2611.64
 469.637 4.41896 2721.11
 467.865 4.52643 2836.72
 466.106 4.64041 2958.9
 464.36 4.76159 3088.15
 462.627 4.89078 3224.99
 460.908 5.02889 3369.99
 459.201 5.17694 3523.79
 457.506 5.33612 3687.08
 455.824 5.50775 3860.61
 454.154 5.69336 4045.23
 452.497 5.89472 4241.84
 450.851 6.11384 4451.48
 449.218 6.35304 4675.25
 447.596 6.61502 4914.41
 445.986 6.90289 5170.33
 444.388 7.2203 5444.55
 442.801 7.57147 5738.77
 441.225 7.96137 6054.92
 439.66 8.39585 6395.12
 438.107 8.8818 6761.78
 436.564 9.4274 7157.6
 435.032 10.0424 7585.62
 433.511 10.7383 8049.28
 432 11.5292 8552.48
 430.5 12.4319 9099.65
 429.011 13.4668 9695.86
 427.532 14.6588 10346.9
 426.062 16.0383 11059.4
 424.603 17.6429 11841
 423.154 19.5191 12700.5
 421.715 21.725 13648.3
 420.285 24.3333 14696.2
 418.865 27.4359 15858.3
 417.455 31.1497 17151.2
 416.054 35.6243 18594.3
 414.663 41.0524 20210.9
 413.28 47.6843 22028.8
 411.907 55.8465 24081.6
 410.544 65.9684 26410.1
 409.189 78.6167 29063.8
 407.843 94.5413 32103.2
 406.505 114.734 35601.9
 405.177 140.499 39647.6
 403.857 173.515 44339.8
 402.546 215.859 49778.6
 401.243 269.889 56030.6
 399.949 337.761 63049.9
 398.663 420.271 70525.4
 397.385 514.832 77672.7
 396.115 613.524 83154.3
 394.854 704.265 85529.4
 393.6 777.255 84315.6
 392.355 831.265 80670.2
 391.117 871.651 76695.7
 389.887 903.502 74104.4
 388.665 928.569 73462.5
 387.45 944.958 74085.4
 386.243 943.437 74194.6
 385.044 902.655 71730.6
 383.852 798.843 66236.8
 382.667 643.319 59077.4
 381.49 485.757 51749.2
 380.319 362.751 45642.6
 379.156 280.942 42232.8
 378 235.191 41564.3
 376.851 224.85 42442.5
 375.71 235.765 44758.1
 374.574 229.951 46613.9
 373.446 198.012 45969.1
 372.325 159.554 43363.4
 371.21 126.448 39999.5
 370.102 100.692 36575.4
 369 81.1234 33370.4
 367.905 66.2166 30466.6
 366.817 54.7347 27868.3
 365.735 45.7748 25552.2
 364.659 38.6931 23487.7
 363.59 33.0293 21644
 362.527 28.4506 19993.2
 361.47 24.7128 18510.4
 360.419 21.6345 17174
 359.374 19.0788 15965.3
 358.336 16.9416 14868.1
 357.303 15.1426 13868.2
 356.276 13.6198 12953.1
 355.255 12.3245 12111.8
 354.24 11.2189 11334.3
