 Energy(eV)     Sca_up     Sca_left
 442.801 55.7319 45.4783
 441.225 57.3112 47.0527
 439.66 58.9448 48.6956
 438.107 60.635 50.411
 436.564 62.3846 52.203
 435.032 64.196 54.0762
 433.511 66.0721 56.0353
 432 68.0159 58.0857
 430.5 70.0305 60.233
 429.011 72.1192 62.4831
 427.532 74.2856 64.8428
 426.062 76.5333 67.319
 424.603 78.8662 69.9195
 423.154 81.2884 72.6525
 421.715 83.8044 75.5272
 420.285 86.4187 78.5533
 418.865 89.1362 81.7416
 417.455 91.9621 85.1038
 416.054 94.9019 88.6526
 414.663 97.9614 92.4021
 413.28 101.147 96.3676
 411.907 104.464 100.566
 410.544 107.921 105.016
 409.189 111.525 109.737
 407.843 115.282 114.753
 406.505 119.202 120.088
 405.177 123.293 125.77
 403.857 127.564 131.83
 402.546 132.025 138.301
 401.243 136.686 145.223
 399.949 141.558 152.637
 398.663 146.652 160.592
 397.385 151.981 169.141
 396.115 157.556 178.343
 394.854 163.391 188.268
 393.6 169.5 198.99
 392.355 175.898 210.597
 391.117 182.599 223.184
 389.887 189.62 236.861
 388.665 196.976 251.752
 387.45 204.685 267.996
 386.243 212.764 285.746
 385.044 221.229 305.177
 383.852 230.099 326.479
 382.667 239.391 349.859
 381.49 249.12 375.538
 380.319 259.303 403.747
 379.156 269.952 434.709
 378 281.078 468.629
 376.851 292.688 505.661
 375.71 304.78 545.869
 374.574 317.346 589.171
 373.446 330.365 635.271
 372.325 343.8 683.577
 371.21 357.593 733.123
 370.102 371.662 782.526
 369 385.894 829.995
 367.905 400.148 873.445
 366.817 414.249 910.73
 365.735 428 939.955
 364.659 441.182 959.81
 363.59 453.563 969.792
 362.527 464.897 970.235
 361.47 474.921 962.123
 360.419 483.349 946.76
 359.374 489.865 925.39
 358.336 494.113 898.893
 357.303 495.703 867.597
 356.276 494.22 831.251
 355.255 489.264 789.164
 354.24 480.522 740.509
 353.231 467.929 684.815
 352.228 451.995 622.616
 351.23 434.478 556.303
 350.238 419.634 491.353
 349.251 415.927 438.236
 348.27 435.939 414.464
 347.295 488.012 442.948
 346.324 559.882 539.404
 345.36 621.02 683.175
 344.4 650.793 793.459
 343.446 649.849 804.151
 342.498 628.767 740.976
 341.554 596.997 654.016
 340.616 560.005 568.445
 339.683 520.38 491.323
 338.754 479.138 423.134
 337.831 436.493 362.963
 336.913 392.35 310.509
 336 346.962 267.483
 335.092 302.493 239.528
 334.189 266.339 237.889
 333.291 252.801 273.486
 332.397 268.81 336.666
 331.508 295.239 399.631
 330.624 310.549 449.593
 329.745 312.815 481.594
 328.87 309.979 499.091
 328 309.547 519.493
 327.135 310.282 539.464
 326.274 302.031 530.102
