 Energy(eV)     Sca_up     Sca_left
 442.801 153.638 198.193
 441.225 157.176 205.788
 439.66 160.805 213.759
 438.107 164.528 222.129
 436.564 168.35 230.925
 435.032 172.272 240.174
 433.511 176.297 249.906
 432 180.431 260.153
 430.5 184.675 270.95
 429.011 189.034 282.333
 427.532 193.512 294.343
 426.062 198.112 307.024
 424.603 202.839 320.421
 423.154 207.697 334.584
 421.715 212.69 349.568
 420.285 217.823 365.431
 418.865 223.1 382.234
 417.455 228.527 400.043
 416.054 234.108 418.931
 414.663 239.848 438.972
 413.28 245.753 460.247
 411.907 251.827 482.842
 410.544 258.077 506.846
 409.189 264.507 532.353
 407.843 271.123 559.46
 406.505 277.931 588.268
 405.177 284.935 618.878
 403.857 292.141 651.391
 402.546 299.553 685.907
 401.243 307.176 722.518
 399.949 315.013 761.308
 398.663 323.068 802.347
 397.385 331.342 845.684
 396.115 339.836 891.341
 394.854 348.549 939.305
 393.6 357.477 989.515
 392.355 366.615 1041.86
 391.117 375.954 1096.15
 389.887 385.481 1152.11
 388.665 395.178 1209.4
 387.45 405.025 1267.54
 386.243 414.992 1325.96
 385.044 425.046 1383.95
 383.852 435.145 1440.71
 382.667 445.242 1495.3
 381.49 455.28 1546.7
 380.319 465.198 1593.83
 379.156 474.926 1635.57
 378 484.391 1670.8
 376.851 493.512 1698.47
 375.71 502.21 1717.62
 374.574 510.404 1727.45
 373.446 518.015 1727.32
 372.325 524.973 1716.81
 371.21 531.219 1695.72
 370.102 536.716 1664.08
 369 541.463 1622.13
 367.905 545.509 1570.36
 366.817 548.993 1509.41
 365.735 552.183 1440.17
 364.659 555.553 1363.76
 363.59 559.875 1281.59
 362.527 566.338 1195.48
 361.47 576.627 1107.84
 360.419 592.864 1021.85
 359.374 617.158 941.776
 358.336 650.562 873.297
 357.303 691.638 824.453
 356.276 735.795 808.375
 355.255 776.777 848.459
 354.24 809.739 979.645
 353.231 832.746 1221.16
 352.228 844.701 1506.3
 351.23 843.715 1687.35
 350.238 830.035 1696.52
 349.251 806.803 1589.34
 348.27 777.098 1438.35
 347.295 742.556 1283.22
 346.324 703.645 1138.82
 345.36 660.135 1009.22
 344.4 611.41 895.382
 343.446 556.775 798.707
 342.498 496.045 723.249
 341.554 430.93 677.413
 340.616 367.892 674.025
 339.683 321.757 723.64
 338.754 313.545 817.074
 337.831 352.75 915.25
 336.913 420.09 978.828
 336 484.508 1012.83
 335.092 530.284 1058.55
 334.189 557.975 1145.41
 333.291 573.617 1267.1
 332.397 582.263 1401.95
 331.508 583.867 1518.66
 330.624 572.736 1570.72
 329.745 545.064 1539.46
 328.87 503.627 1453.1
 328 454.851 1347.16
 327.135 407.799 1239.1
 326.274 372.196 1133.07
