 Energy(eV)     Sca_up     Sca_left
 442.801 67.9137 0.241101 17.0427
 441.225 69.9674 0.247707 17.3791
 439.66 72.0945 0.254534 17.724
 438.107 74.2984 0.261593 18.0776
 436.564 76.5826 0.268892 18.4403
 435.032 78.9508 0.276443 18.8124
 433.511 81.4068 0.284258 19.1943
 432 83.9547 0.292348 19.5864
 430.5 86.5989 0.300725 19.9891
 429.011 89.3439 0.309405 20.4029
 427.532 92.1947 0.3184 20.8281
 426.062 95.1562 0.327727 21.2654
 424.603 98.234 0.3374 21.7152
 423.154 101.434 0.347437 22.1781
 421.715 104.762 0.357856 22.6545
 420.285 108.224 0.368676 23.1452
 418.865 111.828 0.379916 23.6507
 417.455 115.581 0.3916 24.1718
 416.054 119.49 0.403749 24.709
 414.663 123.564 0.416387 25.2632
 413.28 127.811 0.429541 25.8351
 411.907 132.24 0.443237 26.4256
 410.544 136.863 0.457504 27.0356
 409.189 141.688 0.472375 27.6658
 407.843 146.727 0.48788 28.3174
 406.505 151.992 0.504056 28.9912
 405.177 157.496 0.520939 29.6884
 403.857 163.251 0.538568 30.4101
 402.546 169.273 0.556987 31.1575
 401.243 175.576 0.576239 31.9316
 399.949 182.176 0.596371 32.7339
 398.663 189.091 0.617434 33.5656
 397.385 196.339 0.639481 34.4281
 396.115 203.938 0.662567 35.3226
 394.854 211.909 0.686753 36.2506
 393.6 220.273 0.7121 37.2135
 392.355 229.054 0.738674 38.2126
 391.117 238.275 0.766542 39.2491
 389.887 247.961 0.795775 40.3242
 388.665 258.138 0.826446 41.4387
 387.45 268.832 0.858627 42.5934
 386.243 280.073 0.892392 43.7882
 385.044 291.888 0.927811 45.0228
 383.852 304.305 0.964952 46.2955
 382.667 317.353 1.00387 47.6036
 381.49 331.061 1.04462 48.9421
 380.319 345.453 1.08722 50.3034
 379.156 360.554 1.13166 51.6758
 378 376.386 1.17791 53.0416
 376.851 392.966 1.22585 54.3744
 375.71 410.309 1.27528 55.6348
 374.574 428.43 1.3259 56.7639
 373.446 447.352 1.37721 57.673
 372.325 467.126 1.42853 58.2281
 371.21 487.874 1.4789 58.2251
 370.102 509.885 1.52711 57.3547
 369 533.807 1.57192 55.1554
 367.905 561.029 1.6128 50.9759
 366.817 594.315 1.65186 44.0235
 365.735 638.508 1.69802 33.716
 364.659 700.084 1.77228 20.6714
 363.59 782.986 1.9058 8.06228
 362.527 881.455 2.11781 1.0658
 361.47 980.57 2.39016 2.75513
 360.419 1068.51 2.68153 11.4021
 359.374 1143.63 2.96282 23.0951
 358.336 1210.11 3.22673 34.9246
 357.303 1272.51 3.47758 45.5736
 356.276 1333.86 3.7222 54.6786
 355.255 1395.66 3.96642 62.2513
 354.24 1458.39 4.21448 68.3858
 353.231 1521.85 4.46937 73.1421
 352.228 1585.37 4.73341 76.5077
 351.23 1647.87 5.00873 78.3906
 350.238 1707.95 5.29763 78.6307
 349.251 1763.8 5.60216 77.0525
 348.27 1812.99 5.92102 73.6348
 347.295 1851.92 6.23822 68.9946
 346.324 1874.82 6.49535 65.3538
 345.36 1874 6.56923 66.7892
 344.4 1845.66 6.36854 74.8721
 343.446 1794.36 5.9984 83.8017
 342.498 1723.43 5.62846 87.1945
 341.554 1628.99 5.30595 84.1285
 340.616 1504.97 4.9954 76.4335
 339.683 1348.49 4.6458 66.2982
 338.754 1166.94 4.23894 56.3023
 337.831 991.087 3.81884 50.0692
 336.913 882.662 3.51087 51.4057
 336 895.813 3.45957 60.1717
 335.092 1005.21 3.65653 69.9886
 334.189 1126.8 3.93538 74.4044
 333.291 1204.7 4.15801 72.107
 332.397 1229.49 4.28348 65.0014
 331.508 1210.91 4.31857 55.6959
 330.624 1159.74 4.26943 47.5059
 329.745 1085.8 4.12247 45.3334
 328.87 1005.48 3.88188 52.194
 328 937.019 3.63279 61.7729
 327.135 880.901 3.45622 65.9148
 326.274 828.343 3.35138 64.3387
