 Energy(eV)     Sca_up     Sca_left
 442.801 246.495 0.684006 24.6591
 441.225 253.548 0.700198 24.7981
 439.66 260.833 0.716842 24.9325
 438.107 268.358 0.733952 25.062
 436.564 276.133 0.751547 25.1862
 435.032 284.168 0.769642 25.3048
 433.511 292.473 0.788256 25.4174
 432 301.06 0.807406 25.5236
 430.5 309.941 0.827111 25.6228
 429.011 319.127 0.847391 25.7148
 427.532 328.632 0.868267 25.7988
 426.062 338.469 0.889757 25.8744
 424.603 348.652 0.911883 25.941
 423.154 359.196 0.934667 25.998
 421.715 370.118 0.958131 26.0447
 420.285 381.434 0.982295 26.0803
 418.865 393.161 1.00718 26.1041
 417.455 405.319 1.03281 26.1154
 416.054 417.927 1.05921 26.1132
 414.663 431.006 1.0864 26.0966
 413.28 444.58 1.1144 26.0648
 411.907 458.672 1.14322 26.0167
 410.544 473.308 1.17289 25.9516
 409.189 488.518 1.20342 25.8684
 407.843 504.333 1.23482 25.7663
 406.505 520.787 1.2671 25.6445
 405.177 537.918 1.30027 25.5025
 403.857 555.771 1.33433 25.3401
 402.546 574.396 1.36926 25.1575
 401.243 593.852 1.40506 24.9555
 399.949 614.207 1.44171 24.7359
 398.663 635.546 1.47917 24.5021
 397.385 657.973 1.51741 24.2591
 396.115 681.616 1.55639 24.0149
 394.854 706.641 1.59606 23.7815
 393.6 733.261 1.63639 23.5764
 392.355 761.755 1.67738 23.4248
 391.117 792.49 1.71908 23.3625
 389.887 825.954 1.76165 23.4401
 388.665 862.793 1.80547 23.7273
 387.45 903.848 1.8512 24.3184
 386.243 950.199 1.90007 25.3373
 385.044 1003.16 1.95403 26.9378
 383.852 1064.23 2.01611 29.2957
 382.667 1134.85 2.09058 32.5826
 381.49 1216.04 2.18289 36.9133
 380.319 1307.71 2.29896 42.2661
 379.156 1408.09 2.4436 48.4022
 378 1513.48 2.61851 54.8389
 376.851 1618.98 2.82086 60.933
 375.71 1719.86 3.0437 66.0645
 374.574 1813.09 3.27829 69.8224
 373.446 1897.91 3.517 72.0852
 372.325 1975.46 3.7551 72.9736
 371.21 2047.9 3.99103 72.7391
 370.102 2117.56 4.22561 71.6623
 369 2186.51 4.46112 69.9919
 367.905 2256.34 4.70052 67.9226
 366.817 2328.16 4.94698 65.5972
 365.735 2402.72 5.20371 63.1181
 364.659 2480.4 5.47388 60.5635
 363.59 2561.38 5.7606 58.0028
 362.527 2645.59 6.06692 55.5137
 361.47 2732.79 6.39569 53.2017
 360.419 2822.53 6.74912 51.2242
 359.374 2914.06 7.1278 49.8212
 358.336 3006.3 7.52879 49.3486
 357.303 3097.6 7.94201 50.2976
 356.276 3185.56 8.34485 53.2468
 355.255 3266.92 8.69723 58.6462
 354.24 3337.89 8.94452 66.3421
 353.231 3395.15 9.03999 75.0275
 352.228 3437.09 8.98255 82.3165
 351.23 3463.42 8.83196 85.9288
 350.238 3472.9 8.6732 85.0208
 349.251 3460.92 8.56588 80.2891
 348.27 3418.89 8.52797 73.1087
 347.295 3334.62 8.54881 64.8094
 346.324 3193.36 8.57947 56.4842
 345.36 2981.49 8.52796 49.1232
 344.4 2697.65 8.31594 43.7791
 343.446 2377 7.8918 41.4392
 342.498 2115.85 7.2847 42.2184
 341.554 2037.52 6.67662 44.3143
 340.616 2178.04 6.30889 44.823
 339.683 2443.93 6.27123 42.4306
 338.754 2713.6 6.47805 38.2745
 337.831 2918.18 6.8015 34.6922
 336.913 3036.77 7.14779 34.4334
 336 3067.79 7.45355 40.7457
 335.092 3014.1 7.65554 56.9296
 334.189 2888.64 7.67937 83.0268
 333.291 2731.9 7.5027 110.271
 332.397 2598.4 7.24029 124.841
 331.508 2506.68 7.05335 122.597
 330.624 2437.2 7.00267 110.204
 329.745 2368.31 7.06865 94.8417
 328.87 2290.05 7.22255 80.1524
 328 2200.34 7.45233 67.3078
 327.135 2100.23 7.7627 56.4207
 326.274 1991.5 8.1721 47.263
