 Energy(eV)     Sca_U     Sca_D
 826.561 498.288 14626.3
 821.087 505.556 15139.8
 815.685 512.9 15665.5
 810.354 520.327 16203.5
 805.092 527.841 16753.8
 799.898 535.449 17316.6
 794.77 543.154 17892
 789.708 550.964 18480.4
 784.71 558.884 19081.8
 779.774 566.918 19696.5
 774.901 575.073 20324.9
 770.088 583.354 20967.2
 765.334 591.768 21623.9
 760.639 600.321 22295.4
 756.001 609.018 22982.2
 751.419 617.869 23684.9
 746.892 626.879 24404.1
 742.42 636.057 25140.6
 738.001 645.411 25895.3
 733.634 654.952 26668.9
 729.318 664.689 27462.7
 725.053 674.634 28277.8
 720.838 684.801 29115.3
 716.671 695.202 29976.9
 712.553 705.855 30864
 708.481 716.776 31778.4
 704.455 727.984 32722
 700.475 739.502 33696.8
 696.54 751.353 34705.2
 692.649 763.564 35749.5
 688.801 776.164 36832.5
 684.995 789.184 37957
 681.232 802.662 39126
 677.509 816.634 40343
 673.827 831.145 41611.4
 670.185 846.24 42935.1
 666.581 861.969 44318
 663.017 878.388 45764.5
 659.49 895.556 47279
 656.001 913.536 48866.4
 652.548 932.397 50531.4
 649.132 952.21 52279.3
 645.751 973.054 54115.5
 642.405 995.01 56045.5
 639.094 1018.16 58075
 635.816 1042.61 60209.6
 632.572 1068.43 62455.4
 629.361 1095.73 64818
 626.183 1124.61 67303.2
 623.036 1155.17 69916.8
 619.921 1187.5 72664
 616.837 1221.71 75550.1
 613.783 1257.89 78579.6
 610.759 1296.14 81756.8
 607.765 1336.54 85085.1
 604.801 1379.17 88567.2
 601.865 1424.11 92204.6
 598.957 1471.39 95998.1
 596.078 1521.06 99946.9
 593.226 1573.15 104049
 590.401 1627.64 108300
 587.603 1684.5 112695
 584.831 1743.69 117226
 582.085 1805.1 121883
 579.365 1868.62 126657
 576.67 1934.08 131531
 574.001 2001.3 136492
 571.355 2070.04 141521
 568.735 2140.02 146598
 566.138 2210.93 151702
 563.564 2282.44 156810
 561.014 2354.17 161899
 558.487 2425.71 166942
 555.983 2496.64 171917
 553.501 2566.53 176796
 551.041 2634.93 181558
 548.602 2701.39 186177
 546.186 2765.49 190634
 543.79 2826.79 194910
 541.415 2884.91 198988
 539.061 2939.49 202855
 536.728 2990.2 206501
 534.414 3036.78 209921
 532.121 3079 213113
 529.847 3116.68 216077
 527.592 3149.72 218820
 525.357 3178.05 221352
 523.14 3201.69 223684
 520.942 3220.68 225833
 518.762 3235.14 227820
 516.601 3245.24 229667
 514.457 3251.19 231398
 512.331 3253.24 233041
 510.223 3251.71 234627
 508.132 3246.94 236186
 506.058 3239.32 237751
 504.001 3229.27 239357
 501.96 3217.25 241040
 499.936 3203.75 242836
 497.928 3189.31 244784
 495.937 3174.51 246923
 493.961 3159.94 249291
 492.001 3146.27 251931
 490.056 3134.17 254883
 488.127 3124.4 258188
 486.212 3117.73 261889
 484.313 3114.98 266028
 482.429 3117.04 270646
 480.559 3124.81 275783
 478.703 3139.25 281478
 476.862 3161.32 287766
 475.035 3192.03 294677
 473.222 3232.33 302236
 471.423 3283.17 310459
 469.637 3345.42 319353
 467.865 3419.81 328910
 466.106 3506.93 339107
 464.36 3607.13 349903
 462.627 3720.47 361233
 460.908 3846.66 373011
 459.201 3984.98 385124
 457.506 4134.28 397433
 455.824 4292.92 409775
 454.154 4458.76 421967
 452.497 4629.29 433809
 450.851 4801.6 445091
 449.218 4972.64 455608
 447.596 5139.31 465162
 445.986 5298.74 473580
 444.388 5448.49 480720
 442.801 5586.8 486480
 441.225 5712.81 490808
 439.66 5826.74 493700
 438.107 5930.02 495203
 436.564 6025.33 495411
 435.032 6116.66 494462
 433.511 6209.19 492528
 432 6309.13 489811
 430.5 6423.52 486530
 429.011 6559.88 482916
 427.532 6725.82 479205
 426.062 6928.58 475625
 424.603 7174.52 472393
 423.154 7468.71 469707
 421.715 7814.67 467740
 420.285 8214.38 466635
 418.865 8668.75 466501
 417.455 9178.41 467410
 416.054 9744.79 469391
 414.663 10371.2 472417
 413.28 11063.2 476383
 411.907 11827.9 481068
 410.544 12670.8 486092
 409.189 13591.7 490875
 407.843 14577.6 494643
 406.505 15598.8 496493
 405.177 16607.9 495569
 403.857 17546.4 491276
 402.546 18357.5 483461
 401.243 18998.8 472462
 399.949 19450.5 458994
 398.663 19714.6 443942
 397.385 19808.4 428169
 396.115 19756.6 412387
 394.854 19584.4 397111
 393.6 19313.8 382676
 392.355 18962.7 369267
 391.117 18544.7 356965
 389.887 18071.3 345780
 388.665 17552.5 335681
 387.45 16998.6 326612
 386.243 16420.6 318511
 385.044 15831.5 311313
 383.852 15245.7 304952
 382.667 14679.1 299362
 381.49 14147.7 294462
 380.319 13665.9 290154
 379.156 13244.1 286310
 378 12886.4 282785
 376.851 12589.9 279422
 375.71 12345.5 276082
 374.574 12140.2 272659
 373.446 11960.1 269090
 372.325 11792.9 265354
 371.21 11629.1 261461
 370.102 11462.6 257439
 369 11289.9 253325
 367.905 11109.5 249156
 366.817 10921.2 244965
 365.735 10725.4 240778
 364.659 10523.2 236617
 363.59 10315.4 232496
 362.527 10102.8 228425
 361.47 9886.3 224413
 360.419 9666.42 220461
 359.374 9443.62 216573
 358.336 9218.23 212747
 357.303 8990.44 208983
 356.276 8760.36 205276
 355.255 8528.01 201625
 354.24 8293.37 198024
