 Energy(eV)     Ext_Z     Sca_Z     Ext_X     Sca_X
 442.801 321.355 216.687 249.428 169.125
 441.225 330.979 223.239 256.304 173.841
 439.66 340.977 230.041 263.422 178.719
 438.107 351.369 237.106 270.793 183.766
 436.564 362.175 244.446 278.428 188.989
 435.032 373.416 252.077 286.339 194.398
 433.511 385.116 260.013 294.541 200
 432 397.299 268.27 303.046 205.806
 430.5 409.993 276.867 311.87 211.824
 429.011 423.226 285.822 321.029 218.065
 427.532 437.028 295.155 330.54 224.541
 426.062 451.432 304.886 340.42 231.262
 424.603 466.472 315.039 350.689 238.242
 423.154 482.187 325.639 361.367 245.494
 421.715 498.617 336.711 372.476 253.032
 420.285 515.804 348.285 384.038 260.871
 418.865 533.797 360.39 396.079 269.027
 417.455 552.645 373.059 408.625 277.517
 416.054 572.404 386.328 421.705 286.361
 414.663 593.131 400.236 435.349 295.577
 413.28 614.891 414.823 449.589 305.188
 411.907 637.752 430.134 464.461 315.215
 410.544 661.791 446.218 480.001 325.683
 409.189 687.088 463.128 496.251 336.619
 407.843 713.732 480.92 513.254 348.051
 406.505 741.819 499.659 531.057 360.009
 405.177 771.455 519.41 549.711 372.525
 403.857 802.756 540.249 569.27 385.637
 402.546 835.846 562.258 589.793 399.381
 401.243 870.865 585.524 611.346 413.799
 399.949 907.963 610.145 633.996 428.937
 398.663 947.309 636.229 657.821 444.843
 397.385 989.086 663.894 682.903 461.57
 396.115 1033.5 693.27 709.33 479.176
 394.854 1080.77 724.499 737.201 497.724
 393.6 1131.14 757.743 766.622 517.282
 392.355 1184.91 793.177 797.711 537.926
 391.117 1242.36 830.997 830.595 559.739
 389.887 1303.85 871.423 865.415 582.81
 388.665 1369.77 914.698 902.327 607.238
 387.45 1440.53 961.096 941.499 633.133
 386.243 1516.63 1010.92 983.12 660.615
 385.044 1598.62 1064.53 1027.4 689.818
 383.852 1687.11 1122.29 1074.57 720.888
 382.667 1782.79 1184.66 1124.88 753.989
 381.49 1886.47 1252.14 1178.62 789.303
 380.319 1999.06 1325.29 1236.11 827.032
 379.156 2121.59 1404.76 1297.7 867.403
 378 2255.25 1491.29 1363.79 910.67
 376.851 2401.43 1585.75 1434.83 957.117
 375.71 2561.7 1689.11 1511.33 1007.06
 374.574 2737.93 1802.51 1593.86 1060.87
 373.446 2932.26 1927.28 1683.06 1118.95
 372.325 3147.22 2064.97 1779.68 1181.77
 371.21 3385.8 2217.39 1884.54 1249.86
 370.102 3651.49 2386.67 1998.62 1323.81
 369 3948.5 2575.33 2123.01 1404.33
 367.905 4281.81 2786.36 2259 1492.22
 366.817 4657.44 3023.32 2408.05 1588.39
 365.735 5082.66 3290.5 2571.88 1693.93
 364.659 5566.31 3593.04 2752.48 1810.06
 363.59 6119.21 3937.15 2952.21 1938.26
 362.527 6754.73 4330.41 3173.81 2080.22
 361.47 7489.44 4782.02 3420.56 2237.96
 360.419 8344.07 5303.27 3696.32 2413.87
 359.374 9344.8 5907.97 4005.73 2610.76
 358.336 10524.9 6613.11 4354.34 2832
 357.303 11927.1 7439.46 4748.85 3081.6
 356.276 13606.9 8412.41 5197.33 3364.3
 355.255 15637.1 9562.61 5709.58 3685.74
 354.24 18114.3 10926.5 6297.36 4052.38
 353.231 21167.5 12545.9 6974.72 4471.36
 352.228 24964.3 14465.5 7757.83 4949.56
 351.23 29691.3 16722 8663.85 5491.19
 350.238 35412.1 19304.9 9707.78 6092.69
 349.251 41585.6 22043.4 10900 6740.3
 348.27 46497.7 24462.5 12273 7450.88
 347.295 48437.4 26003.1 13961 8376.09
 346.324 47708.6 26482.7 16132.3 9681.52
 345.36 45482.2 25953.7 18836.1 11349.4
 344.4 42336 24491.8 22099.6 13338.3
 343.446 38522.8 22269.7 25973.7 15651.7
 342.498 34375.9 19576.1 30473.8 18277.8
 341.554 30302.3 16721 35487.8 21121
 340.616 26666.9 13951.9 40653.3 23928
 339.683 23773.4 11455.7 45222.4 26235
 338.754 21996.5 9457.73 48041.9 27406.9
 337.831 21816.3 8319.34 48049.2 26873.7
 336.913 22952.9 8303.24 45096.1 24576.1
 336 23184 8791.47 40121.2 21139.3
 335.092 21016 8674.4 34472.3 17337.2
 334.189 17876.7 7885.46 29166.4 13666.4
 333.291 15140.3 6915.02 25014 10584.1
 332.397 13102.3 6065.29 22740.5 8585.09
 331.508 11518.3 5366.93 22762.7 8148.05
 330.624 10193.4 4720.86 24262.2 9218.32
 329.745 9189.89 4115.22 24793.4 10477.2
 328.87 8591.9 3582.75 23051.8 10579.7
 328 8473.13 3150.72 20163.9 9666.96
 327.135 8870.01 2854.36 17445.4 8478.83
 326.274 9479.31 2710.94 15293.5 7472.07
