 Energy(eV)     Ext_Z     Sca_Z     Ext_X     Sca_X
 442.801 9620.76 8509.89 6948.65 6284
 441.225 9891.8 8744.73 7119.58 6435.8
 439.66 10173.2 8988.27 7295.85 6592.22
 438.107 10465.4 9240.95 7477.68 6753.45
 436.564 10769.1 9503.25 7665.31 6919.69
 435.032 11084.9 9775.7 7858.98 7091.15
 433.511 11413.4 10058.9 8058.97 7268.06
 432 11755.5 10353.3 8265.55 7450.64
 430.5 12111.9 10659.7 8479 7639.15
 429.011 12483.4 10978.7 8699.65 7833.83
 427.532 12870.9 11311.1 8927.81 8034.98
 426.062 13275.5 11657.6 9163.83 8242.86
 424.603 13698.2 12019.1 9408.07 8457.78
 423.154 14140.1 12396.6 9660.92 8680.07
 421.715 14602.5 12791 9922.79 8910.05
 420.285 15086.8 13203.5 10194.1 9148.1
 418.865 15594.4 13635.2 10475.3 9394.56
 417.455 16126.9 14087.4 10766.9 9649.86
 416.054 16686 14561.5 11069.4 9914.39
 414.663 17273.8 15059 11383.3 10188.6
 413.28 17892.2 15581.7 11709.2 10473
 411.907 18543.6 16131.3 12047.7 10768
 410.544 19230.6 16709.8 12399.5 11074.1
 409.189 19955.8 17319.4 12765.2 11392
 407.843 20722.4 17962.6 13145.6 11722.1
 406.505 21533.8 18642.1 13541.4 12065.1
 405.177 22393.8 19360.8 13953.5 12421.7
 403.857 23306.6 20122.1 14382.7 12792.5
 402.546 24276.9 20929.6 14830 13178.1
 401.243 25309.9 21787.3 15296.3 13579.5
 399.949 26411.4 22700 15782.8 13997.3
 398.663 27588.2 23672.6 16290.5 14432.4
 397.385 28847.6 24711 16820.7 14885.7
 396.115 30198.1 25821.6 17374.6 15358.2
 394.854 31649 27011.9 17953.6 15850.7
 393.6 33211.2 28290 18559.3 16364.3
 392.355 34897 29665.4 19193.2 16900.1
 391.117 36720.2 31148.7 19857.1 17459.3
 389.887 38696.9 32752.2 20553 18043.1
 388.665 40845 34489.6 21282.9 18652.7
 387.45 43185.6 36376.8 22049.3 19289.7
 386.243 45742.1 38431.7 22854.7 19955.6
 385.044 48541.8 40674.9 23702.4 20652.2
 383.852 51615.4 43129.3 24596 21381.5
 382.667 54997.9 45821.3 25539.8 22145.9
 381.49 58728.2 48779.9 26539.2 22948.7
 380.319 62850.1 52037.3 27600.9 23793.8
 379.156 67410.8 55628.3 28733.7 24686.5
 378 72460.7 59589.2 29948.9 25634.1
 376.851 78051.1 63956.4 31261.9 26647.2
 375.71 84230.7 68763 32692.9 27740.3
 374.574 91040.2 74034.4 34269.5 28934.4
 373.446 98503.4 79781.3 36027.6 30258.6
 372.325 106617 85989.4 38013.3 31752.7
 371.21 115333 92607.9 40282.2 33467.6
 370.102 124545 99533.6 42895.5 35463.9
 369 134070 106596 45909.7 37804.6
 367.905 143632 113543 49361.2 40540.9
 366.817 152843 120027 53248.1 43694.2
 365.735 161159 125580 57520.9 47241.3
 364.659 167745 129568 62089.8 51114.7
 363.59 171300 131196 66851.9 55221.3
 362.527 170463 129925 71722.7 59471.5
 361.47 165469 126311 76657.5 63802.6
 360.419 158470 121680 81654.3 68187.5
 359.374 151155 116747 86744.2 72629.9
 358.336 143935 111571 91976.8 77153
 357.303 136790 106133 97408.6 81788.1
 356.276 129755 100515 103093 86565.1
 355.255 122970 94870 109070 91502
 354.24 116634 89372.8 115345 96591.2
 353.231 110983 84204.9 121851 101773
 352.228 106283 79554.8 128382 106898
 351.23 102828 75615.9 134563 111716
 350.238 100925 72566.2 139964 115948
 349.251 100884 70531.5 144364 119437
 348.27 103066 69592.9 147844 122184
 347.295 108004 69929.4 150547 124182
 346.324 115987 71946.7 152405 125256
 345.36 124700 75500.2 153088 125066
 344.4 127539 78160.8 152210 123282
 343.446 121145 77104.2 149568 119705
 342.498 109993 72839.8 144992 114071
 341.554 98721.1 67284.9 138269 106035
 340.616 88954.7 61572.1 129426 95494.9
 339.683 80899.5 56200 119291 83191.1
 338.754 74470.1 51468.1 110222 71631.9
 337.831 69417.3 47320.8 106086 65370.2
 336.913 65526.8 43481.4 109330 67958.3
 336 62908.8 39895.8 117150 77064.2
 335.092 62009.9 36757.6 123862 86263.5
 334.189 63743.1 34632.1 126378 91390.5
 333.291 69332.5 34606.2 125047 92233
 332.397 78778.8 37720.6 121501 90634.1
 331.508 88883 43326.9 116411 87701.6
 330.624 95209.5 48770.9 110091 83597.2
 329.745 95465 51603.3 103723 79350.1
 328.87 90138.3 51104.6 98015.9 75656.3
 328 81923.2 48264 92639.1 72075.5
 327.135 73720.8 44424.6 87193.4 68127.1
 326.274 66691.5 40384.1 81659.9 63800.8
