 Energy(eV)     Ext_Z     Sca_Z     Ext_X     Sca_X
 442.801 112.758 108.479 101.328 97.8655
 441.225 116.154 111.736 104.267 100.695
 439.66 119.679 115.115 107.31 103.625
 438.107 123.338 118.623 110.463 106.66
 436.564 127.138 122.266 113.731 109.805
 435.032 131.087 126.05 117.119 113.065
 433.511 135.191 129.984 120.633 116.447
 432 139.46 134.074 124.278 119.954
 430.5 143.903 138.33 128.063 123.595
 429.011 148.527 142.76 131.993 127.376
 427.532 153.344 147.374 136.076 131.303
 426.062 158.364 152.181 140.321 135.384
 424.603 163.599 157.193 144.734 139.628
 423.154 169.061 162.422 149.326 144.043
 421.715 174.762 167.88 154.106 148.638
 420.285 180.718 173.58 159.084 153.423
 418.865 186.943 179.538 164.271 158.408
 417.455 193.453 185.768 169.679 163.605
 416.054 200.267 192.287 175.32 169.025
 414.663 207.404 199.113 181.208 174.682
 413.28 214.883 206.267 187.358 180.59
 411.907 222.728 213.769 193.784 186.763
 410.544 230.962 221.642 200.504 193.217
 409.189 239.611 229.911 207.536 199.969
 407.843 248.704 238.603 214.9 207.039
 406.505 258.271 247.747 222.615 214.446
 405.177 268.347 257.375 230.705 222.212
 403.857 278.968 267.523 239.195 230.361
 402.546 290.173 278.227 248.111 238.917
 401.243 302.007 289.53 257.482 247.909
 399.949 314.517 301.477 267.34 257.367
 398.663 327.756 314.119 277.719 267.323
 397.385 341.783 327.51 288.655 277.813
 396.115 356.66 341.71 300.191 288.876
 394.854 372.459 356.788 312.37 300.555
 393.6 389.256 372.816 325.241 312.895
 392.355 407.14 389.877 338.857 325.949
 391.117 426.204 408.061 353.279 339.773
 389.887 446.557 427.471 368.569 354.427
 388.665 468.318 448.219 384.801 369.981
 387.45 491.619 470.432 402.052 386.51
 386.243 516.611 494.252 420.41 404.098
 385.044 543.462 519.838 439.974 422.837
 383.852 572.362 547.371 460.85 442.831
 382.667 603.526 577.055 483.159 464.194
 381.49 637.198 609.12 507.036 487.055
 380.319 673.657 643.83 532.633 511.56
 379.156 713.219 681.486 560.119 537.869
 378 756.25 722.433 589.686 566.166
 376.851 803.17 767.069 621.551 596.657
 375.71 854.465 815.853 655.959 629.576
 374.574 910.698 869.317 693.19 665.191
 373.446 972.529 928.086 733.563 703.805
 372.325 1040.73 992.888 777.444 745.768
 371.21 1116.21 1064.58 825.254 791.48
 370.102 1200.06 1144.19 877.479 841.406
 369 1293.56 1232.93 934.684 896.082
 367.905 1398.26 1332.25 997.526 956.137
 366.817 1516.04 1443.93 1066.78 1022.3
 365.735 1649.18 1570.1 1143.34 1095.45
 364.659 1800.49 1713.4 1228.29 1176.59
 363.59 1973.45 1877.1 1322.92 1266.95
 362.527 2172.43 2065.28 1428.74 1367.98
 361.47 2402.96 2283.1 1547.62 1481.46
 360.419 2672.14 2537.17 1681.81 1609.52
 359.374 2989.19 2836.05 1834.07 1754.8
 358.336 3366.32 3191.01 2007.81 1920.55
 357.303 3819.97 3617.18 2207.32 2110.82
 356.276 4372.85 4135.27 2437.99 2330.75
 355.255 5057.2 4774.4 2706.72 2586.91
 354.24 5920.74 5577.08 3022.49 2887.81
 353.231 7038.34 6608.67 3397.15 3244.69
 352.228 8539.08 7978.51 3846.76 3672.74
 351.23 10684.3 9899.13 4393.81 4193.15
 350.238 14180.4 12917.8 5071.9 4837.2
 349.251 22180 19387 5939.04 5656.74
 348.27 55574.8 44752.9 7149.2 6764.21
 347.295 39977 34609.4 6780.83 5253.23
 346.324 35331.6 32703.5 9325.33 8807.4
 345.36 41502.8 39078.8 11728.5 11132.6
 344.4 48951.4 46291.2 14831.4 14087.2
 343.446 52156.8 49331.4 19099.7 18137.7
 342.498 47584.3 44915 25121 23842.6
 341.554 37638 35369 33628.9 31891.8
 340.616 27235 25360.3 45076.7 42702.9
 339.683 19242.5 17464.5 57977.9 54847.6
 338.754 12087 9985.27 66271 62571
 337.831 6268.02 3945.62 62542.9 58867.7
 336.913 10876.2 3107.55 48518.7 45289.3
 336 59387.1 41507.2 34314.1 27497.3
 335.092 20531.6 17638.2 25187.9 23348.5
 334.189 12075 10834.7 16705.7 15359.7
 333.291 8455.43 7698.32 10936 9835.24
 332.397 6372.01 5826.24 6791.82 5768.98
 331.508 4980.83 4545.26 3712.84 2512.81
 330.624 3963.36 3585.13 2405.35 212.33
 329.745 3166.33 2803.43 19167.7 11032.3
 328.87 2504.31 2094.43 37118.1 30719.6
 328 1969.99 1318.02 16889 15043
 327.135 3071.65 298.249 10312.6 9413.91
 326.274 15043.6 8855.68 7292 6719.23
