 Energy(eV)     Ext_Z     Sca_Z     Ext_X     Sca_X
 476.862 823.65 629.297 760.708 599.157
 475.035 846.115 646.494 780.826 615.139
 473.222 869.099 664.396 801.383 631.743
 471.423 892.613 683.065 822.389 649.019
 469.637 916.678 702.558 843.86 667.016
 467.865 941.346 722.902 865.839 685.754
 466.106 966.678 744.114 888.375 705.245
 464.36 992.737 766.208 911.521 725.5
 462.627 1019.59 789.196 935.329 746.526
 460.908 1047.3 813.089 959.854 768.33
 459.201 1075.95 837.892 985.155 790.913
 457.506 1105.61 863.607 1011.29 814.274
 455.824 1136.35 890.23 1038.32 838.408
 454.154 1168.26 917.754 1066.3 863.304
 452.497 1201.42 946.161 1095.31 888.946
 450.851 1235.91 975.428 1125.41 915.312
 449.218 1271.84 1005.54 1156.66 942.387
 447.596 1309.34 1036.54 1189.19 970.205
 445.986 1348.59 1068.5 1223.12 998.82
 444.388 1389.76 1101.49 1258.6 1028.29
 442.801 1433.05 1135.58 1295.77 1058.68
 441.225 1478.68 1170.88 1334.8 1090.07
 439.66 1526.89 1207.48 1375.87 1122.53
 438.107 1577.94 1245.5 1419.19 1156.15
 436.564 1632.13 1285.06 1464.97 1191.04
 435.032 1689.79 1326.29 1513.45 1227.3
 433.511 1751.25 1369.36 1564.9 1265.05
 432 1816.94 1414.44 1619.61 1304.43
 430.5 1887.29 1461.71 1677.91 1345.58
 429.011 1962.75 1511.39 1740.11 1388.68
 427.532 2043.64 1563.71 1806.44 1433.88
 426.062 2130.26 1618.91 1877.07 1481.38
 424.603 2222.95 1677.28 1952.23 1531.39
 423.154 2322.1 1739.14 2032.17 1584.16
 421.715 2428.14 1804.85 2117.15 1639.93
 420.285 2541.57 1874.8 2207.49 1699.02
 418.865 2662.95 1949.48 2303.54 1761.77
 417.455 2792.94 2029.4 2405.7 1828.54
 416.054 2932.25 2115.18 2514.42 1899.79
 414.663 3081.76 2207.52 2630.23 1976.01
 413.28 3242.43 2307.23 2753.7 2057.76
 411.907 3415.37 2415.19 2885.5 2145.65
 410.544 3601.72 2532.19 3026.28 2240.21
 409.189 3802.7 2659.02 3176.72 2341.93
 407.843 4019.66 2796.57 3337.55 2451.37
 406.505 4254.05 2945.8 3509.53 2569.12
 405.177 4507.46 3107.79 3693.49 2695.82
 403.857 4781.63 3283.69 3890.28 2832.14
 402.546 5078.43 3474.75 4100.79 2978.81
 401.243 5399.89 3682.36 4325.94 3136.6
 399.949 5748.2 3907.99 4566.7 3306.29
 398.663 6125.71 4153.24 4824.04 3488.73
 397.385 6534.92 4419.8 5098.91 3684.76
 396.115 6979.02 4709.68 5392.63 3895.39
 394.854 7463.9 5025.92 5708.09 4122.28
 393.6 7997.29 5372.29 6049.11 4367.5
 392.355 8588.67 5753.29 6420.2 4633.47
 391.117 9249.74 6174.26 6826.76 4923.01
 389.887 9994.98 6641.6 7275.21 5239.41
 388.665 10842.5 7163 7773.24 5586.52
 387.45 11815 7747.68 8330 5968.83
 386.243 12941.4 8406.79 8956.51 6391.6
 385.044 14258.6 9153.78 9665.94 6860.87
 383.852 15814.2 10004.8 10474.1 7383.62
 382.667 17669.9 10979.3 11399.7 7967.65
 381.49 19905.1 12099.7 12465 8621.51
 380.319 22617.8 13390.8 13694.6 9353.65
 379.156 25911.8 14876 15109.8 10170.6
 378 29884 16570.6 16730.7 11076.1
 376.851 34574.8 18466.1 18574.2 12068.3
 375.71 39856.3 20497.1 20652.3 13137.1
 374.574 45278 22501.3 22971.1 14264.1
 373.446 50030.3 24214.7 25543.1 15436.8
 372.325 53278.7 25369.8 28414 16687.6
 371.21 54709.4 25842 31662.5 18114.7
 370.102 54635.9 25676.3 35298.7 19787.1
 369 53586.3 24983.9 39165.8 21622.5
 367.905 51961.1 23869.2 42989.1 23429.5
 366.817 49991.8 22428.6 46461.8 25003.7
 365.735 47826.3 20766.4 49264.5 26145.9
 364.659 45634.1 19039.6 51070.3 26669.2
 363.59 43576.3 17432.2 51605.6 26434
 362.527 41616.4 16046.5 50748.1 25400.8
 361.47 39426.7 14807.4 48613.2 23672.9
 360.419 36722.4 13544.8 45568.2 21495.5
 359.374 33639 12185.2 42138.9 19201.4
 358.336 30596.4 10799 38817.3 17101.9
 357.303 27947.2 9505.54 35828.7 15339.8
 356.276 25799.7 8384.85 33050.3 13818.6
 355.255 24009 7438.69 30256.6 12347.5
 354.24 22312.6 6606.9 27413 10849.7
 353.231 20556.8 5836.6 24670.9 9384.67
 352.228 18783.6 5127.5 22205.7 8055.1
 351.23 17108.5 4500.25 20101.6 6920.6
 350.238 15610.4 3967.19 18354.5 5993.68
 349.251 14303.4 3526.21 16902.7 5256.06
 348.27 13156.3 3164.63 15657.8 4672.74
 347.295 12124.4 2865.4 14536.2 4204.46
 346.324 11171.6 2612.61 13480.9 3817.75
 345.36 10276.1 2394.72 12465.3 3489.46
 344.4 9426.69 2204.78 11482.1 3205.94
