 Energy(eV)     Sca_F     Sca_B
 442.801 108.069 589.006
 441.225 109.678 607.133
 439.66 111.322 625.962
 438.107 113.002 645.53
 436.564 114.72 665.875
 435.032 116.477 687.039
 433.511 118.276 709.063
 432 120.118 731.997
 430.5 122.006 755.889
 429.011 123.941 780.794
 427.532 125.925 806.769
 426.062 127.962 833.876
 424.603 130.054 862.18
 423.154 132.204 891.754
 421.715 134.414 922.674
 420.285 136.688 955.022
 418.865 139.03 988.888
 417.455 141.443 1024.37
 416.054 143.93 1061.57
 414.663 146.497 1100.6
 413.28 149.148 1141.58
 411.907 151.888 1184.65
 410.544 154.723 1229.95
 409.189 157.657 1277.64
 407.843 160.698 1327.9
 406.505 163.853 1380.9
 405.177 167.128 1436.86
 403.857 170.533 1495.99
 402.546 174.077 1558.56
 401.243 177.768 1624.83
 399.949 181.619 1695.11
 398.663 185.642 1769.72
 397.385 189.85 1849.04
 396.115 194.259 1933.48
 394.854 198.884 2023.5
 393.6 203.747 2119.6
 392.355 208.867 2222.36
 391.117 214.271 2332.42
 389.887 219.985 2450.5
 388.665 226.042 2577.42
 387.45 232.481 2714.11
 386.243 239.344 2861.61
 385.044 246.682 3021.12
 383.852 254.557 3194.03
 382.667 263.04 3381.92
 381.49 272.219 3586.62
 380.319 282.198 3810.26
 379.156 293.106 4055.32
 378 305.103 4324.71
 376.851 318.388 4621.88
 375.71 333.212 4950.89
 374.574 349.895 5316.61
 373.446 368.854 5724.88
 372.325 390.629 6182.77
 371.21 415.938 6698.85
 370.102 445.744 7283.6
 369 481.348 7949.91
 367.905 524.541 8713.64
 366.817 577.803 9594.31
 365.735 644.606 10615.8
 364.659 729.822 11807
 363.59 840.272 13201.2
 362.527 985.331 14834.1
 361.47 1177.29 16737
 360.419 1430.52 18919.7
 359.374 1757.1 21338.2
 358.336 2154.56 23841.3
 357.303 2581.86 26118.4
 356.276 2933.39 27704.7
 355.255 3058.15 28060.9
 354.24 2901.16 26602.5
 353.231 2700.42 23105.1
 352.228 2759.04 19038.6
 351.23 3004.08 16522.1
 350.238 3266.67 16082.2
 349.251 3527.91 17351.2
 348.27 3843.9 19997
 347.295 4278.94 23810.8
 346.324 4871.78 28473.3
 345.36 5582.68 33212.3
 344.4 6229.55 36650.6
 343.446 6529.94 37461.7
 342.498 6313.84 35588.7
 341.554 5667.67 32403.9
 340.616 4837.39 29567.1
 339.683 4062.56 27674
 338.754 3450.35 25643
 337.831 2954.4 22667.4
 336.913 2509.68 19242.6
 336 2124.44 15909.7
 335.092 1843.64 12919.8
 334.189 1719.28 10485.6
 333.291 1777.84 8940.04
 332.397 1934.84 8540.15
 331.508 1978.25 8924.21
 330.624 1797.13 9356.88
 329.745 1503.42 9662.23
 328.87 1273.21 10048.9
 328 1181.32 10564.3
 327.135 1174.55 11015.9
 326.274 1142.58 11150.7
