 Energy(eV)     Sca_F     Sca_B
 442.801 25.6772 51.4124
 441.225 26.2816 52.9287
 439.66 26.9041 54.4999
 438.107 27.5456 56.1286
 436.564 28.2067 57.8177
 435.032 28.8883 59.57
 433.511 29.5915 61.3885
 432 30.317 63.2767
 430.5 31.066 65.2381
 429.011 31.8395 67.2763
 427.532 32.6386 69.3954
 426.062 33.4647 71.5996
 424.603 34.3189 73.8935
 423.154 35.2025 76.2818
 421.715 36.1172 78.7698
 420.285 37.0644 81.3629
 418.865 38.0457 84.0673
 417.455 39.063 86.889
 416.054 40.118 89.8351
 414.663 41.2128 92.9129
 413.28 42.3494 96.1301
 411.907 43.5303 99.4954
 410.544 44.7578 103.018
 409.189 46.0345 106.707
 407.843 47.3633 110.574
 406.505 48.7471 114.631
 405.177 50.1891 118.889
 403.857 51.693 123.362
 402.546 53.2622 128.066
 401.243 54.901 133.015
 399.949 56.6137 138.228
 398.663 58.4049 143.723
 397.385 60.2798 149.522
 396.115 62.2438 155.647
 394.854 64.3029 162.123
 393.6 66.4635 168.977
 392.355 68.7327 176.24
 391.117 71.1182 183.945
 389.887 73.6282 192.129
 388.665 76.2718 200.833
 387.45 79.059 210.101
 386.243 82.0006 219.984
 385.044 85.1084 230.539
 383.852 88.3955 241.828
 382.667 91.8762 253.921
 381.49 95.5662 266.898
 380.319 99.4827 280.847
 379.156 103.645 295.871
 378 108.074 312.082
 376.851 112.792 329.613
 375.71 117.827 348.612
 374.574 123.205 369.251
 373.446 128.959 391.728
 372.325 135.122 416.272
 371.21 141.735 443.15
 370.102 148.839 472.676
 369 156.481 505.216
 367.905 164.713 541.209
 366.817 173.591 581.174
 365.735 183.179 625.739
 364.659 193.542 675.665
 363.59 204.752 731.882
 362.527 216.882 795.54
 361.47 230.01 868.08
 360.419 244.207 951.325
 359.374 259.54 1047.62
 358.336 276.062 1160.01
 357.303 293.806 1292.55
 356.276 312.789 1450.71
 355.255 333.048 1641.94
 354.24 354.786 1876.51
 353.231 378.848 2168.36
 352.228 408.19 2534.83
 351.23 452.046 2990.7
 350.238 535.955 3520.87
 349.251 713.17 4004.15
 348.27 1026.2 4162.93
 347.295 1396.43 3897.9
 346.324 1714.95 3638.81
 345.36 1985.69 3760.09
 344.4 2242.95 4280.27
 343.446 2502.29 5137.68
 342.498 2751.27 6308.68
 341.554 2945.35 7781.17
 340.616 3024.02 9454.07
 339.683 2993.38 10907
 338.754 2971.97 11353.1
 337.831 2913.02 10612.2
 336.913 2639.3 9401.74
 336 2229.23 8103.36
 335.092 1825.35 6643.57
 334.189 1450.64 5173.64
 333.291 1125.21 3921.5
 332.397 883.464 2968.27
 331.508 765.417 2345.78
 330.624 818.784 2113.57
 329.745 1034.96 2273.05
 328.87 1236.09 2541.11
 328 1239.53 2573.78
 327.135 1081.03 2406.96
 326.274 863.342 2229.57
