 Energy(eV)     Sca_F     Sca_B
 442.801 1659.65 39745.5
 441.225 1676.49 41252.8
 439.66 1698.05 42843.2
 438.107 1725.93 44523.4
 436.564 1762.06 46300.8
 435.032 1808.77 48183.6
 433.511 1868.92 50180.6
 432 1945.89 52301.6
 430.5 2043.79 54557.1
 429.011 2167.51 56958.5
 427.532 2322.88 59517.7
 426.062 2516.85 62247.4
 424.603 2757.61 65160.9
 423.154 3054.84 68271.3
 421.715 3419.83 71591.4
 420.285 3865.69 75132.9
 418.865 4407.48 78905.1
 417.455 5062.29 82913.8
 416.054 5849.15 87159.2
 414.663 6788.79 91633.4
 413.28 7903.05 96317.4
 411.907 9213.98 101178
 410.544 10742.2 106162
 409.189 12505.1 111196
 407.843 14513.4 116180
 406.505 16768.5 120987
 405.177 19258.6 125466
 403.857 21955.3 129447
 402.546 24811.8 132755
 401.243 27763.1 135224
 399.949 30729 136718
 398.663 33620.6 137151
 397.385 36348.4 136503
 396.115 38832.5 134825
 394.854 41010.7 132234
 393.6 42843.6 128901
 392.355 44317 125030
 391.117 45439.4 120832
 389.887 46237.1 116513
 388.665 46749.3 112253
 387.45 47021.4 108205
 386.243 47100.6 104488
 385.044 47032.2 101194
 383.852 46857.5 98387.3
 382.667 46613 96116
 381.49 46329.8 94414.7
 380.319 46034.2 93311
 379.156 45748.4 92831
 378 45491.5 93002.8
 376.851 45280.1 93860.6
 375.71 45129.7 95446.8
 374.574 45055.5 97813.2
 373.446 45072.8 101020
 372.325 45198.6 105134
 371.21 45451.5 110215
 370.102 45851.7 116300
 369 46418.1 123364
 367.905 47158.2 131249
 366.817 48040.8 139530
 365.735 48938.6 147312
 364.659 49547.5 153046
 363.59 49374.5 154751
 362.527 47973.4 151104
 361.47 45351.8 142718
 360.419 42034.1 131789
 359.374 38649.1 120410
 358.336 35591.7 109630
 357.303 33011.5 99688.8
 356.276 30931.7 90485.8
 355.255 29344.3 81862.3
 354.24 28260.5 73708.4
 353.231 27736.1 66022.5
 352.228 27881.8 59001.4
 351.23 28842 53204
 350.238 30677.2 49722.5
 349.251 33070.5 49922.8
 348.27 35055.1 54012.9
 347.295 35522.7 59510.2
 346.324 34357.3 63004.5
 345.36 32395.5 63345.4
 344.4 30442.2 61568.7
 343.446 28856.9 59312.9
 342.498 27659.2 58146.8
 341.554 26659.2 59495.7
 340.616 25528.5 64325
 339.683 23932.7 72288.2
 338.754 21772.3 81201
 337.831 19291.7 88219.7
 336.913 16867.8 91813.4
 336 14748.8 92198.2
 335.092 13000.9 90385.6
 334.189 11586.3 87346.7
 333.291 10436.7 83743.6
 332.397 9487.59 79959.7
 331.508 8688.3 76195.1
 330.624 8001.45 72543.5
 329.745 7399.98 69040.4
 328.87 6864.26 65690.3
 328 6379.61 62481.3
 327.135 5934.54 59392.4
 326.274 5519.23 56397.4
