 Energy(eV)     Sca_F     Sca_B
 442.801 190.351 3370.09
 441.225 195.318 3481.9
 439.66 200.627 3598.54
 438.107 206.3 3720.28
 436.564 212.367 3847.41
 435.032 218.857 3980.26
 433.511 225.801 4119.16
 432 233.235 4264.5
 430.5 241.196 4416.66
 429.011 249.726 4576.08
 427.532 258.867 4743.23
 426.062 268.67 4918.59
 424.603 279.187 5102.72
 423.154 290.475 5296.2
 421.715 302.597 5499.68
 420.285 315.622 5713.83
 418.865 329.625 5939.42
 417.455 344.688 6177.27
 416.054 360.901 6428.27
 414.663 378.363 6693.4
 413.28 397.183 6973.72
 411.907 417.48 7270.41
 410.544 439.386 7584.74
 409.189 463.046 7918.12
 407.843 488.618 8272.09
 406.505 516.279 8648.36
 405.177 546.224 9048.81
 403.857 578.666 9475.49
 402.546 613.842 9930.71
 401.243 652.013 10417
 399.949 693.468 10937.2
 398.663 738.524 11494.3
 397.385 787.53 12091.9
 396.115 840.87 12733.7
 394.854 898.962 13424.1
 393.6 962.264 14167.8
 392.355 1031.27 14970.1
 391.117 1106.51 15836.7
 389.887 1188.54 16774.4
 388.665 1277.94 17790.1
 387.45 1375.3 18892
 386.243 1481.19 20088.6
 385.044 1596.13 21389.7
 383.852 1720.52 22805.5
 382.667 1854.55 24347.1
 381.49 1998.14 26026.2
 380.319 2150.71 27855
 379.156 2311 29845.8
 378 2476.78 32010.7
 376.851 2644.49 34360.9
 375.71 2808.85 36906.9
 374.574 2962.49 39657.8
 373.446 3095.79 42622.1
 372.325 3197.17 45808.7
 371.21 3254.68 49229
 370.102 3259.92 52896.8
 369 3216.54 56818.6
 367.905 3156.53 60954
 366.817 3167.67 65104.5
 365.735 3426.08 68686.4
 364.659 4190.98 70478
 363.59 5662.27 68872.4
 362.527 7707.46 63278.7
 361.47 9840.22 55399.7
 360.419 11646 48013
 359.374 13062.7 42844.3
 358.336 14243.6 40213.5
 357.303 15354.6 39752.2
 356.276 16492.2 40932.5
 355.255 17674.2 43237.6
 354.24 18852.9 46173.9
 353.231 19931.5 49260
 352.228 20786.5 52043.1
 351.23 21293.8 54151.3
 350.238 21352.8 55361.9
 349.251 20895 55657.7
 348.27 19865.7 55253.7
 347.295 18187.1 54578.2
 346.324 15773.8 54129.1
 345.36 12789.2 53958.2
 344.4 9987.42 53013.3
 343.446 8097.94 50117.6
 342.498 7017.15 45637.8
 341.554 6324.54 40593.5
 340.616 5790.51 35551.2
 339.683 5357.61 30683.7
 338.754 5025.63 26079.4
 337.831 4767.39 21962.7
 336.913 4467.82 18765.1
 336 3973.54 16847.9
 335.092 3323.78 16157
 334.189 2868.05 16629.3
 333.291 2963 18301.2
 332.397 3399.46 20165.7
 331.508 3756.99 21622.3
 330.624 4067.38 23835.5
 329.745 4167.76 27281.2
 328.87 3697.02 30771.2
 328 2891.98 32241.8
 327.135 2233.09 31188.5
 326.274 1816.77 28830.2
