 Energy(eV)     Sca_F     Sca_B
 442.801 0.667278 0.792031
 441.225 0.685445 0.814682
 439.66 0.704215 0.838117
 438.107 0.723615 0.862372
 436.564 0.743672 0.887484
 435.032 0.764417 0.913492
 433.511 0.785881 0.940438
 432 0.808096 0.968365
 430.5 0.831097 0.997322
 429.011 0.854922 1.02736
 427.532 0.87961 1.05852
 426.062 0.905203 1.09088
 424.603 0.931744 1.12448
 423.154 0.95928 1.15939
 421.715 0.987863 1.19568
 420.285 1.01755 1.23342
 418.865 1.04838 1.27268
 417.455 1.08044 1.31356
 416.054 1.11377 1.35613
 414.663 1.14846 1.40048
 413.28 1.18457 1.44673
 411.907 1.22218 1.49497
 410.544 1.26138 1.54533
 409.189 1.30226 1.59792
 407.843 1.34491 1.65288
 406.505 1.38944 1.71035
 405.177 1.43597 1.77048
 403.857 1.48461 1.83344
 402.546 1.53549 1.89942
 401.243 1.58876 1.96859
 399.949 1.64456 2.04118
 398.663 1.70306 2.11741
 397.385 1.76445 2.19752
 396.115 1.8289 2.28179
 394.854 1.89664 2.3705
 393.6 1.9679 2.46398
 392.355 2.04291 2.56256
 391.117 2.12195 2.66664
 389.887 2.20532 2.77661
 388.665 2.29335 2.89295
 387.45 2.38638 3.01614
 386.243 2.48481 3.14674
 385.044 2.58907 3.28536
 383.852 2.69964 3.43267
 382.667 2.81703 3.58942
 381.49 2.94183 3.75643
 380.319 3.07468 3.93461
 379.156 3.21629 4.125
 378 3.36746 4.32875
 376.851 3.52907 4.54714
 375.71 3.70213 4.78161
 374.574 3.88774 5.0338
 373.446 4.08716 5.30555
 372.325 4.30181 5.59896
 371.21 4.53329 5.91642
 370.102 4.78343 6.26064
 369 5.0543 6.63475
 367.905 5.34826 7.04235
 366.817 5.66805 7.48762
 365.735 6.01679 7.97538
 364.659 6.39811 8.51131
 363.59 6.81619 9.10203
 362.527 7.27595 9.75538
 361.47 7.7831 10.4807
 360.419 8.3444 11.2891
 359.374 8.9678 12.194
 358.336 9.66278 13.2117
 357.303 10.4406 14.3622
 356.276 11.3148 15.67
 355.255 12.3018 17.1661
 354.24 13.4214 18.8892
 353.231 14.6978 20.8892
 352.228 16.1606 23.2306
 351.23 17.8469 25.9979
 350.238 19.8035 29.3039
 349.251 22.0926 33.2988
 348.27 24.8064 38.1781
 347.295 28.1116 44.168
 346.324 32.3959 51.4073
 345.36 38.638 59.5465
 344.4 48.5086 67.5472
 343.446 62.2763 76.2896
 342.498 78.5147 89.9248
 341.554 98.1871 111.466
 340.616 124.387 143.379
 339.683 161.333 190.008
 338.754 214.632 258.152
 337.831 290.084 354.435
 336.913 384.433 471.466
 336 458.707 559.487
 335.092 444.728 545.267
 334.189 350.511 439.436
 333.291 244.761 314.077
 332.397 162.633 211.565
 331.508 108.384 141.847
 330.624 76.5663 99.7982
 329.745 63.1728 80.2997
 328.87 67.709 82.2459
 328 85.5164 100.283
 327.135 96.3749 111.706
 326.274 88.0543 102.456
