 Energy(eV)     Sca_U     Sca_D
 442.801 39.8425 545.606
 441.225 40.9551 560.842
 439.66 42.1054 576.594
 438.107 43.295 592.885
 436.564 44.5256 609.737
 435.032 45.7991 627.177
 433.511 47.1175 645.23
 432 48.4828 663.926
 430.5 49.8971 683.294
 429.011 51.3628 703.366
 427.532 52.8824 724.174
 426.062 54.4583 745.756
 424.603 56.0935 768.149
 423.154 57.7908 791.392
 421.715 59.5534 815.528
 420.285 61.3845 840.603
 418.865 63.2876 866.665
 417.455 65.2666 893.766
 416.054 67.3255 921.96
 414.663 69.4685 951.306
 413.28 71.7001 981.866
 411.907 74.0254 1013.71
 410.544 76.4495 1046.9
 409.189 78.978 1081.53
 407.843 81.6169 1117.67
 406.505 84.3727 1155.41
 405.177 87.2524 1194.84
 403.857 90.2634 1236.07
 402.546 93.4136 1279.21
 401.243 96.7119 1324.38
 399.949 100.168 1371.7
 398.663 103.791 1421.32
 397.385 107.592 1473.38
 396.115 111.584 1528.04
 394.854 115.779 1585.49
 393.6 120.191 1645.91
 392.355 124.836 1709.51
 391.117 129.729 1776.52
 389.887 134.89 1847.19
 388.665 140.337 1921.78
 387.45 146.092 2000.6
 386.243 152.18 2083.97
 385.044 158.627 2172.25
 383.852 165.46 2265.82
 382.667 172.712 2365.14
 381.49 180.418 2470.66
 380.319 188.617 2582.94
 379.156 197.352 2702.55
 378 206.67 2830.15
 376.851 216.625 2966.48
 375.71 227.277 3112.35
 374.574 238.693 3268.68
 373.446 250.948 3436.5
 372.325 264.127 3616.97
 371.21 278.325 3811.4
 370.102 293.652 4021.29
 369 310.231 4248.32
 367.905 328.204 4494.44
 366.817 347.731 4761.85
 365.735 369 5053.11
 364.659 392.226 5371.17
 363.59 417.659 5719.44
 362.527 445.588 6101.91
 361.47 476.356 6523.25
 360.419 510.365 6988.97
 359.374 548.089 7505.57
 358.336 590.097 8080.82
 357.303 637.067 8724.04
 356.276 689.824 9446.48
 355.255 749.365 10261.9
 354.24 816.92 11187
 353.231 894.009 12242.6
 352.228 982.53 13454.8
 351.23 1084.89 14856.5
 350.238 1204.15 16489.6
 349.251 1344.28 18408.7
 348.27 1510.5 20684.9
 347.295 1709.74 23413.2
 346.324 1951.3 26721.1
 345.36 2247.82 30781.7
 344.4 2616.52 35830.8
 343.446 3082.25 42208.5
 342.498 3685.24 50465.7
 341.554 4488.19 61461.4
 340.616 5585.71 76490.7
 339.683 7130.43 97644.3
 338.754 9378.07 128424
 337.831 12755.7 174677
 336.913 17913.1 245304
 336 25420.9 348117
 335.092 33897.9 464201
 334.189 37234.6 509895
 333.291 31345.2 429246
 332.397 21568.6 295363
 331.508 13641.1 186803
 330.624 8742.87 119726
 329.745 6189.65 84761.9
 328.87 5467.11 74867.2
 328 6395.56 87581.5
 327.135 8046.45 110189
 326.274 8314.32 113857
