 Energy(eV)     Sca_U     Sca_D
 442.801 25.8013 25.5961
 441.225 26.5218 26.3109
 439.66 27.2667 27.0499
 438.107 28.037 27.8141
 436.564 28.834 28.6047
 435.032 29.6587 29.4229
 433.511 30.5124 30.2698
 432 31.3965 31.1469
 430.5 32.3124 32.0555
 429.011 33.2616 32.9971
 427.532 34.2456 33.9733
 426.062 35.2662 34.9858
 424.603 36.3251 36.0363
 423.154 37.4243 37.1267
 421.715 38.5657 38.259
 420.285 39.7514 39.4354
 418.865 40.9839 40.658
 417.455 42.2655 41.9294
 416.054 43.5987 43.2521
 414.663 44.9865 44.6288
 413.28 46.4317 46.0625
 411.907 47.9375 47.5563
 410.544 49.5073 49.1136
 409.189 51.1447 50.738
 407.843 52.8536 52.4334
 406.505 54.6382 54.2038
 405.177 56.503 56.0538
 403.857 58.4529 57.9881
 402.546 60.4929 60.012
 401.243 62.6289 62.1309
 399.949 64.8667 64.3509
 398.663 67.213 66.6786
 397.385 69.6748 69.1208
 396.115 72.2598 71.6853
 394.854 74.9764 74.3803
 393.6 77.8336 77.2147
 392.355 80.8413 80.1985
 391.117 84.0101 83.3422
 389.887 87.3519 86.6574
 388.665 90.8795 90.1569
 387.45 94.6068 93.8546
 386.243 98.5492 97.7657
 385.044 102.724 101.907
 383.852 107.149 106.297
 382.667 111.845 110.956
 381.49 116.836 115.907
 380.319 122.145 121.174
 379.156 127.801 126.785
 378 133.836 132.771
 376.851 140.282 139.167
 375.71 147.18 146.01
 374.574 154.573 153.344
 373.446 162.509 161.217
 372.325 171.044 169.684
 371.21 180.238 178.805
 370.102 190.164 188.652
 369 200.9 199.303
 367.905 212.538 210.849
 366.817 225.184 223.394
 365.735 238.958 237.058
 364.659 253.998 251.979
 363.59 270.468 268.317
 362.527 288.555 286.26
 361.47 308.479 306.027
 360.419 330.503 327.875
 359.374 354.932 352.11
 358.336 382.135 379.097
 357.303 412.553 409.273
 356.276 446.717 443.165
 355.255 485.275 481.416
 354.24 529.022 524.816
 353.231 578.943 574.34
 352.228 636.268 631.209
 351.23 702.552 696.966
 350.238 779.782 773.582
 349.251 870.532 863.61
 348.27 978.173 970.396
 347.295 1107.19 1098.39
 346.324 1263.62 1253.57
 345.36 1455.64 1444.07
 344.4 1694.41 1680.94
 343.446 1996.01 1980.14
 342.498 2386.48 2367.51
 341.554 2906.46 2883.35
 340.616 3617.19 3588.43
 339.683 4617.52 4580.81
 338.754 6073.05 6024.76
 337.831 8260.33 8194.65
 336.913 11600.2 11508
 336 16462.2 16331.3
 335.092 21951.7 21777.2
 334.189 24112.5 23920.8
 333.291 20298.7 20137.3
 332.397 13967.5 13856.4
 331.508 8833.76 8763.52
 330.624 5661.74 5616.72
 329.745 4008.32 3976.45
 328.87 3540.41 3512.26
 328 4141.66 4108.73
 327.135 5210.74 5169.31
 326.274 5384.2 5341.4
