 Energy(eV)     Sca_U     Sca_D
 442.801 0.403145 0.39994
 441.225 0.414403 0.411108
 439.66 0.426042 0.422655
 438.107 0.438079 0.434596
 436.564 0.450531 0.446949
 435.032 0.463417 0.459732
 433.511 0.476757 0.472966
 432 0.490571 0.48667
 430.5 0.504882 0.500867
 429.011 0.519712 0.51558
 427.532 0.535088 0.530834
 426.062 0.551035 0.546653
 424.603 0.56758 0.563067
 423.154 0.584754 0.580105
 421.715 0.602589 0.597797
 420.285 0.621116 0.616178
 418.865 0.640373 0.635282
 417.455 0.660398 0.655147
 416.054 0.68123 0.675814
 414.663 0.702914 0.697325
 413.28 0.725495 0.719727
 411.907 0.749023 0.743067
 410.544 0.773551 0.7674
 409.189 0.799135 0.792781
 407.843 0.825837 0.819271
 406.505 0.853722 0.846934
 405.177 0.88286 0.87584
 403.857 0.913326 0.906064
 402.546 0.945202 0.937687
 401.243 0.978576 0.970795
 399.949 1.01354 1.00548
 398.663 1.0502 1.04185
 397.385 1.08867 1.08001
 396.115 1.12906 1.12008
 394.854 1.17151 1.16219
 393.6 1.21615 1.20648
 392.355 1.26314 1.2531
 391.117 1.31266 1.30222
 389.887 1.36487 1.35402
 388.665 1.41999 1.4087
 387.45 1.47823 1.46648
 386.243 1.53983 1.52759
 385.044 1.60506 1.5923
 383.852 1.6742 1.66089
 382.667 1.74758 1.73369
 381.49 1.82556 1.81104
 380.319 1.90852 1.89334
 379.156 1.9969 1.98102
 378 2.09118 2.07455
 376.851 2.19191 2.17448
 375.71 2.2997 2.28141
 374.574 2.41521 2.396
 373.446 2.53921 2.51902
 372.325 2.67256 2.65131
 371.21 2.81622 2.79383
 370.102 2.97131 2.94768
 369 3.13906 3.1141
 367.905 3.32091 3.29451
 366.817 3.5185 3.49053
 365.735 3.73372 3.70403
 364.659 3.96873 3.93717
 363.59 4.22606 4.19246
 362.527 4.50867 4.47282
 361.47 4.81999 4.78167
 360.419 5.1641 5.12304
 359.374 5.54582 5.50172
 358.336 5.97087 5.92339
 357.303 6.44614 6.39489
 356.276 6.97995 6.92445
 355.255 7.58242 7.52213
 354.24 8.26597 8.20025
 353.231 9.04598 8.97406
 352.228 9.94168 9.86264
 351.23 10.9774 10.8901
 350.238 12.1841 12.0872
 349.251 13.6021 13.4939
 348.27 15.284 15.1624
 347.295 17.2999 17.1623
 346.324 19.7441 19.5871
 345.36 22.7444 22.5636
 344.4 26.4751 26.2646
 343.446 31.1876 30.9396
 342.498 37.2888 36.9923
 341.554 45.4134 45.0524
 340.616 56.5185 56.0692
 339.683 72.1487 71.5751
 338.754 94.8913 94.1369
 337.831 129.068 128.041
 336.913 181.253 179.812
 336 257.222 255.176
 335.092 342.995 340.268
 334.189 376.758 373.762
 333.291 317.167 314.645
 332.397 218.242 216.506
 331.508 138.028 136.93
 330.624 88.4648 87.7613
 329.745 62.63 62.132
 328.87 55.3189 54.879
 328 64.7134 64.1989
 327.135 81.4178 80.7704
 326.274 84.1282 83.4593
