 Energy(eV)     Sca_L     Sca_R
 442.801 591.315 29.0797
 441.225 607.093 29.6221
 439.66 623.407 30.1769
 438.107 640.283 30.7451
 436.564 657.746 31.3275
 435.032 675.825 31.9253
 433.511 694.548 32.5395
 432 713.946 33.1714
 430.5 734.053 33.8223
 429.011 754.903 34.4936
 427.532 776.535 35.1868
 426.062 798.986 35.9036
 424.603 822.301 36.6458
 423.154 846.523 37.4153
 421.715 871.7 38.2142
 420.285 897.885 39.0447
 418.865 925.13 39.9093
 417.455 953.496 40.8104
 416.054 983.045 41.7511
 414.663 1013.84 42.7343
 413.28 1045.96 43.7633
 411.907 1079.48 44.8417
 410.544 1114.48 45.9734
 409.189 1151.05 47.1625
 407.843 1189.29 48.4136
 406.505 1229.3 49.7316
 405.177 1271.19 51.1219
 403.857 1315.08 52.5902
 402.546 1361.11 54.143
 401.243 1409.41 55.7871
 399.949 1460.14 57.53
 398.663 1513.47 59.3801
 397.385 1569.57 61.3461
 396.115 1628.64 63.4381
 394.854 1690.91 65.6669
 393.6 1756.59 68.0442
 392.355 1825.96 70.5833
 391.117 1899.28 73.2984
 389.887 1976.88 76.2055
 388.665 2059.09 79.3221
 387.45 2146.29 82.6679
 386.243 2238.88 86.2644
 385.044 2337.32 90.1357
 383.852 2442.13 94.3088
 382.667 2553.85 98.8135
 381.49 2673.12 103.684
 380.319 2800.64 108.957
 379.156 2937.17 114.677
 378 3083.6 120.89
 376.851 3240.89 127.651
 375.71 3410.17 135.023
 374.574 3592.66 143.075
 373.446 3789.79 151.888
 372.325 4003.15 161.554
 371.21 4234.57 172.179
 370.102 4486.13 183.885
 369 4760.24 196.814
 367.905 5059.65 211.13
 366.817 5387.55 227.025
 365.735 5747.62 244.724
 364.659 6144.17 264.492
 363.59 6582.23 286.64
 362.527 7067.7 311.537
 361.47 7607.55 339.625
 360.419 8210.04 371.429
 359.374 8885 407.578
 358.336 9644.16 448.831
 357.303 10501.7 496.1
 356.276 11474.5 550.488
 355.255 12583.4 613.323
 354.24 13853.4 686.204
 353.231 15315 771.037
 352.228 17005.8 870.063
 351.23 18971.1 985.849
 350.238 21266.2 1121.19
 349.251 23957.2 1278.86
 348.27 27121.8 1460.95
 347.295 30847.2 1667.78
 346.324 35223.7 1895.69
 345.36 40326.9 2134.02
 344.4 46177 2362.25
 343.446 52644.2 2554.08
 342.498 59230.6 2707.99
 341.554 64651.8 2936.43
 340.616 66613.6 3565.36
 339.683 63569.1 4906.62
 338.754 58021.7 6669.49
 337.831 54408.1 8134.02
 336.913 53714.8 8802.11
 336 53399.8 8521.13
 335.092 50891.8 7625.58
 334.189 45844.1 6692.96
 333.291 39741.2 5906.28
 332.397 34625.1 5232.14
 331.508 32014.5 4654.18
 330.624 31949 4083.1
 329.745 33208.6 3417.6
 328.87 33301.9 2769.95
 328 31251.6 2251.32
 327.135 28151.7 1855.75
 326.274 24955.6 1550.87
