 Energy(eV)     Ext_xy     Sca_xy     Ext_yz     Sca_yz 413.28 114407 104942 45589.4 41958.3
 413.025 115217 105682 45840.2 42173.7
 412.769 116030 106426 46095.1 42392.7
 412.514 116846 107173 46354.3 42615.3
 412.26 117666 107922 46617.9 42841.9
 412.005 118488 108674 46886 43072.4
 411.751 119313 109429 47158.7 43306.9
 411.497 120141 110186 47436.2 43545.6
 411.244 120972 110945 47718.5 43788.7
 410.991 121805 111707 48005.8 44036.1
 410.738 122641 112470 48298.3 44288.2
 410.485 123479 113236 48596 44544.9
 410.233 124319 114004 48899.1 44806.4
 409.981 125161 114774 49207.7 45072.8
 409.729 126005 115545 49522 45344.4
 409.478 126851 116318 49842.1 45621.1
 409.227 127699 117092 50168 45903.1
 408.976 128548 117868 50500 46190.6
 408.726 129399 118645 50838.2 46483.7
 408.476 130251 119423 51182.7 46782.5
 408.226 131104 120202 51533.5 47087.2
 407.977 131958 120981 51891 47397.8
 407.728 132813 121762 52255 47714.5
 407.479 133669 122543 52625.8 48037.4
 407.23 134525 123324 53003.5 48366.7
 406.982 135382 124106 53388.2 48702.4
 406.734 136239 124887 53780 49044.6
 406.486 137096 125669 54178.9 49393.5
 406.239 137952 126450 54585.1 49749.2
 405.992 138809 127231 54998.7 50111.7
 405.745 139664 128011 55419.6 50481.2
 405.499 140520 128790 55848.1 50857.7
 405.253 141374 129569 56284.1 51241.3
 405.007 142227 130346 56727.6 51632.1
 404.761 143079 131122 57178.9 52030.1
 404.516 143930 131897 57637.7 52435.4
 404.271 144778 132670 58104.3 52848
 404.026 145625 133441 58578.5 53268
 403.782 146470 134210 59060.4 53695.3
 403.538 147313 134976 59550 54130
 403.294 148153 135741 60047.2 54572
 403.051 148990 136502 60551.9 55021.5
 402.807 149824 137261 61064.2 55478.2
 402.565 150655 138016 61584 55942.2
 402.322 151483 138768 62111.1 56413.5
 402.08 152307 139517 62645.5 56891.9
 401.838 153127 140262 63187 57377.5
 401.596 153943 141002 63735.6 57870
 401.355 154755 141739 64291.1 58369.4
 401.113 155562 142471 64853.3 58875.6
 400.873 156364 143199 65422.1 59388.4
 400.632 157161 143921 65997.3 59907.7
 400.392 157953 144639 66578.7 60433.3
 400.152 158739 145351 67166.1 60965.1
 399.912 159519 146057 67759.3 61502.8
 399.673 160293 146758 68358 62046.4
 399.433 161061 147453 68962 62595.5
 399.195 161822 148141 69571.1 63149.9
 398.956 162576 148823 70185 63709.5
 398.718 163323 149498 70803.4 64274
 398.48 164063 150165 71426.2 64843.2
 398.242 164795 150826 72052.9 65416.7
 398.005 165519 151479 72683.3 65994.5
 397.768 166234 152124 73317.1 66576.1
 397.531 166942 152761 73954.1 67161.3
 397.294 167640 153390 74594 67749.9
 397.058 168330 154010 75236.4 68341.6
 396.822 169010 154622 75881.1 68936.1
 396.586 169681 155224 76527.8 69533.2
 396.351 170342 155818 77176.1 70132.5
 396.115 170993 156401 77825.9 70733.9
 395.881 171634 156975 78476.9 71337
 395.646 172264 157539 79128.7 71941.6
 395.412 172883 158092 79781.1 72547.4
 395.178 173491 158636 80433.9 73154.2
 394.944 174088 159168 81086.8 73761.8
 394.71 174674 159689 81739.6 74369.8
 394.477 175247 160199 82392.1 74978.2
 394.244 175808 160698 83044 75586.6
 394.011 176357 161185 83695.1 76194.9
 393.779 176894 161660 84345.3 76802.8
 393.547 177418 162123 84994.3 77410.2
 393.315 177928 162574 85642 78016.9
 393.083 178426 163012 86288.3 78622.7
 392.852 178909 163437 86933 79227.4
 392.621 179380 163849 87575.9 79831
 392.39 179836 164249 88217 80433.3
 392.16 180278 164634 88856.1 81034.2
 391.93 180706 165006 89493.2 81633.5
 391.7 181119 165364 90128.2 82231.2
 391.47 181517 165709 90761 82827.2
 391.241 181901 166039 91391.5 83421.4
 391.011 182269 166354 92019.8 84013.7
 390.783 182622 166655 92645.7 84604.1
 390.554 182960 166942 93269.4 85192.6
 390.326 183282 167213 93890.7 85779
 390.098 183588 167470 94509.6 86363.5
 389.87 183878 167711 95126.2 86946
 389.642 184152 167937 95740.6 87526.4
 389.415 184409 168147 96352.6 88104.8
 389.188 184651 168342 96962.4 88681.2
 388.961 184875 168521 97570 89255.7
 388.735 185083 168684 98175.5 89828.2
 388.508 185275 168831 98778.9 90398.8
 388.282 185449 168962 99380.4 90967.5
 388.057 185606 169077 99979.8 91534.3
 387.831 185747 169175 100577 92099.5
 387.606 185870 169257 101173 92662.9
 387.381 185976 169323 101767 93224.6
 387.157 186064 169372 102360 93784.8
 386.932 186135 169404 102951 94343.5
 386.708 186189 169419 103541 94900.7
 386.484 186225 169418 104129 95456.7
 386.261 186244 169400 104716 96011.3
 386.037 186246 169365 105302 96564.7
 385.814 186229 169313 105888 97117.1
 385.591 186195 169244 106472 97668.4
 385.369 186144 169158 107055 98218.9
 385.146 186075 169055 107638 98768.5
 384.924 185989 168936 108220 99317.3
 384.703 185885 168799 108802 99865.5
 384.481 185763 168645 109384 100413
 384.26 185624 168474 109965 100960
 384.039 185468 168286 110546 101507
 383.818 185294 168081 111127 102054
 383.597 185103 167859 111709 102600
 383.377 184895 167621 112290 103146
 383.157 184669 167365 112872 103693
 382.937 184427 167093 113454 104239
 382.718 184168 166804 114037 104786
 382.498 183891 166498 114621 105333
 382.279 183598 166176 115205 105880
 382.061 183289 165837 115790 106427
 381.842 182963 165482 116376 106975
 381.624 182621 165110 116963 107524
 381.406 182262 164722 117551 108074
 381.188 181888 164318 118140 108624
 380.971 181497 163897 118731 109175
 380.753 181091 163461 119323 109727
 380.536 180670 163009 119916 110280
 380.319 180233 162541 120511 110834
 380.103 179781 162057 121108 111389
 379.887 179313 161558 121706 111945
 379.671 178832 161043 122306 112502
 379.455 178335 160513 122908 113061
 379.239 177825 159968 123512 113621
 379.024 177300 159408 124118 114183
 378.809 176761 158832 124726 114746
 378.594 176209 158243 125336 115311
 378.379 175644 157638 125948 115877
 378.165 175065 157019 126562 116445
 377.951 174474 156386 127179 117014
 377.737 173870 155739 127798 117585
 377.524 173254 155077 128419 118158
 377.31 172626 154402 129042 118733
 377.097 171986 153713 129669 119310
 376.884 171335 153011 130297 119888
 376.672 170673 152295 130928 120469
 376.459 170001 151566 131562 121051
 376.247 169318 150824 132198 121635
 376.035 168625 150069 132837 122221
 375.823 167923 149302 133478 122809
 375.612 167211 148522 134123 123399
 375.401 166491 147729 134769 123992
 375.19 165763 146925 135419 124586
 374.979 165027 146109 136071 125182
 374.769 164283 145282 136726 125780
 374.558 163533 144443 137384 126380
 374.348 162777 143592 138044 126982
 374.138 162015 142732 138707 127586
 373.929 161248 141860 139373 128192
 373.72 160476 140978 140041 128800
 373.51 159701 140087 140713 129410
 373.302 158924 139186 141386 130022
 373.093 158144 138276 142063 130636
 372.885 157364 137357 142742 131252
 372.676 156583 136431 143424 131869
 372.469 155804 135497 144108 132489
 372.261 155026 134556 144794 133110
 372.053 154253 133609 145484 133732
 371.846 153484 132657 146175 134357
 371.639 152722 131700 146869 134982
 371.432 151969 130740 147565 135610
 371.226 151225 129777 148264 136239
 371.02 150494 128814 148965 136869
 370.813 149777 127851 149667 137500
 370.608 149077 126890 150372 138133
 370.402 148397 125933 151079 138767
 370.197 147739 124982 151788 139401
 369.991 147107 124039 152498 140037
 369.787 146505 123106 153210 140674
 369.582 145937 122187 153924 141311
 369.377 145406 121285 154639 141949
 369.173 144917 120403 155355 142587
 368.969 144476 119545 156073 143226
 368.765 144088 118715 156792 143865
 368.562 143759 117919 157512 144504
 368.358 143496 117161 158232 145143
 368.155 143305 116447 158954 145781
 367.952 143193 115783 159676 146420
 367.75 143169 115177 160398 147058
 367.547 143241 114635 161121 147695
 367.345 143417 114166 161844 148332
 367.143 143706 113778 162566 148968
 366.941 144118 113480 163289 149602
 366.739 144662 113282 164012 150235
 366.538 145346 113193 164734 150867
 366.337 146180 113223 165455 151497
 366.136 147172 113382 166176 152126
 365.935 148330 113680 166896 152752
 365.735 149659 114127 167614 153377
 365.535 151165 114730 168332 153999
 365.335 152849 115498 169048 154618
 365.135 154714 116437 169762 155235
 364.935 156755 117550 170475 155849
 364.736 158968 118840 171185 156460
 364.537 161342 120304 171894 157067
 364.338 163865 121940 172600 157671
 364.139 166519 123738 173304 158272
 363.941 169283 125689 174006 158868
 363.742 172132 127776 174704 159460
 363.544 175036 129981 175400 160048
 363.346 177965 132281 176093 160632
 363.149 180884 134651 176782 161210
 362.951 183760 137063 177467 161783
 362.754 186557 139489 178149 162351
 362.557 189241 141898 178827 162914
 362.36 191781 144262 179500 163470
 362.164 194148 146551 180170 164020
 361.967 196317 148740 180834 164564
 361.771 198269 150804 181493 165100
 361.575 199987 152725 182147 165629
 361.379 201463 154484 182795 166150
 361.184 202689 156071 183437 166663
 360.989 203667 157475 184073 167167
 360.794 204398 158693 184702 167662
 360.599 204891 159723 185323 168147
 360.404 205156 160566 185937 168621
 360.21 205205 161226 186542 169084
 360.015 205053 161711 187139 169536
 359.821 204716 162029 187726 169975
 359.627 204209 162188 188302 170400
 359.434 203549 162200 188868 170812
 359.24 202753 162076 189423 171208
 359.047 201837 161826 189965 171588
 358.854 200816 161462 190493 171952
 358.661 199704 160995 191007 172296
 358.469 198514 160436 191507 172622
 358.276 197260 159793 191989 172926
 358.084 195953 159078 192455 173209
 357.892 194604 158299 192901 173468
 357.701 193221 157464 193328 173701
 357.509 191814 156582 193733 173908
 357.318 190390 155658 194116 174087
 357.127 188957 154700 194474 174235
 356.936 187520 153714 194805 174351
 356.745 186085 152705 195109 174432
 356.554 184658 151678 195383 174476
 356.364 183242 150637 195625 174482
 356.174 181841 149587 195833 174445
 355.984 180459 148530 196005 174365
 355.794 179100 147472 196138 174238
 355.605 177766 146414 196230 174061
 355.415 176460 145359 196279 173831
 355.226 175183 144311 196281 173546
 355.037 173939 143270 196234 173202
 354.849 172729 142241 196135 172795
 354.66 171556 141223 195981 172323
 354.472 170420 140221 195768 171781
 354.284 169324 139234 195495 171168
 354.096 168270 138266 195157 170479
 353.908 167258 137317 194753 169710
 353.721 166292 136390 194278 168860
 353.533 165372 135485 193731 167926
 353.346 164499 134604 193109 166904
 353.159 163677 133749 192410 165793
 352.973 162906 132922 191633 164592
 352.786 162187 132123 190777 163301
 352.6 161524 131355 189841 161919
 352.414 160917 130618 188827 160449
 352.228 160368 129914 187736 158894
 352.042 159880 129245 186572 157258
 351.856 159453 128613 185340 155548
 351.671 159090 128018 184046 153773
 351.486 158792 127462 182697 151943
 351.301 158561 126946 181305 150070
 351.116 158399 126473 179881 148171
 350.932 158306 126043 178440 146264
 350.747 158283 125657 176998 144368
 350.563 158332 125316 175574 142505
 350.379 158452 125022 174186 140700
 350.195 158644 124774 172855 138978
 350.012 158907 124573 171604 137363
 349.828 159239 124419 170452 135883
 349.645 159639 124311 169423 134560
 349.462 160104 124250 168534 133417
 349.279 160631 124233 167803 132475
 349.097 161216 124258 167244 131750
 348.914 161854 124324 166870 131253
 348.732 162539 124428 166688 130992
 348.55 163266 124567 166700 130971
 348.368 164026 124737 166907 131186
 348.186 164814 124933 167305 131631
 348.005 165620 125152 167885 132295
 347.823 166438 125388 168636 133163
 347.642 167257 125636 169544 134216
 347.461 168069 125890 170593 135436
 347.281 168865 126143 171766 136800
 347.1 169635 126390 173046 138286
 346.92 170369 126622 174412 139872
 346.74 171057 126833 175848 141534
 346.56 171689 127015 177336 143253
 346.38 172256 127161 178858 145009
 346.2 172747 127262 180400 146782
 346.021 173154 127313 181947 148556
 345.841 173468 127305 183486 150316
 345.662 173682 127232 185005 152048
 345.483 173790 127088 186493 153741
 345.305 173786 126868 187943 155384
 345.126 173667 126569 189345 156967
 344.948 173432 126187 190692 158484
 344.77 173081 125721 191979 159928
 344.592 172616 125171 193200 161294
 344.414 172039 124537 194351 162576
 344.236 171358 123822 195427 163771
 344.059 170578 123030 196425 164875
 343.882 169708 122166 197342 165887
 343.705 168759 121235 198176 166804
 343.528 167742 120245 198924 167624
 343.351 166668 119204 199584 168346
 343.175 165551 118123 200154 168969
 342.998 164405 117009 200633 169492
 342.822 163243 115876 201019 169915
 342.646 162082 114734 201312 170239
 342.471 160934 113596 201511 170464
 342.295 159816 112474 201616 170591
 342.12 158744 111383 201626 170621
 341.944 157731 110336 201542 170557
 341.769 156793 109347 201366 170402
 341.594 155945 108430 201100 170160
 341.42 155199 107601 200747 169834
 341.245 154571 106873 200309 169431
 341.071 154070 106259 199793 168957
 340.897 153709 105773 199202 168420
 340.723 153496 105426 198545 167826
 340.549 153439 105227 197828 167187
 340.375 153544 105186 197060 166510
 340.202 153811 105306 196250 165807
 340.029 154242 105593 195408 165088
 339.855 154834 106044 194544 164363
 339.683 155580 106658 193668 163644
