 Energy(eV)     Ext_xy     Sca_xy     Ext_yz     Sca_yz 413.28 2621.27 2093.02 2283.62 1887.11
 413.025 2639.03 2106.96 2297.83 1898.77
 412.769 2656.95 2121.04 2312.15 1910.52
 412.514 2675.04 2135.24 2326.59 1922.36
 412.26 2693.3 2149.57 2341.15 1934.31
 412.005 2711.74 2164.03 2355.83 1946.35
 411.751 2730.34 2178.62 2370.63 1958.49
 411.497 2749.12 2193.35 2385.56 1970.73
 411.244 2768.08 2208.21 2400.62 1983.08
 410.991 2787.21 2223.21 2415.8 1995.52
 410.738 2806.53 2238.35 2431.11 2008.07
 410.485 2826.04 2253.63 2446.55 2020.73
 410.233 2845.73 2269.06 2462.12 2033.49
 409.981 2865.6 2284.62 2477.82 2046.36
 409.729 2885.67 2300.34 2493.66 2059.34
 409.478 2905.94 2316.2 2509.63 2072.43
 409.227 2926.4 2332.21 2525.75 2085.63
 408.976 2947.06 2348.37 2542 2098.94
 408.726 2967.91 2364.69 2558.39 2112.36
 408.476 2988.98 2381.16 2574.92 2125.9
 408.226 3010.25 2397.79 2591.6 2139.56
 407.977 3031.73 2414.58 2608.42 2153.33
 407.728 3053.42 2431.53 2625.39 2167.23
 407.479 3075.33 2448.65 2642.51 2181.24
 407.23 3097.45 2465.93 2659.78 2195.37
 406.982 3119.8 2483.38 2677.2 2209.63
 406.734 3142.37 2501 2694.77 2224.01
 406.486 3165.16 2518.79 2712.5 2238.52
 406.239 3188.19 2536.75 2730.39 2253.16
 405.992 3211.44 2554.89 2748.44 2267.92
 405.745 3234.94 2573.22 2766.65 2282.81
 405.499 3258.67 2591.72 2785.02 2297.84
 405.253 3282.64 2610.41 2803.56 2313
 405.007 3306.86 2629.28 2822.26 2328.29
 404.761 3331.33 2648.34 2841.14 2343.73
 404.516 3356.05 2667.59 2860.18 2359.29
 404.271 3381.03 2687.04 2879.4 2375
 404.026 3406.26 2706.69 2898.8 2390.85
 403.782 3431.76 2726.53 2918.37 2406.85
 403.538 3457.53 2746.57 2938.12 2422.99
 403.294 3483.56 2766.82 2958.05 2439.27
 403.051 3509.87 2787.28 2978.17 2455.71
 402.807 3536.46 2807.95 2998.47 2472.29
 402.565 3563.32 2828.83 3018.96 2489.02
 402.322 3590.48 2849.92 3039.64 2505.91
 402.08 3617.92 2871.24 3060.52 2522.96
 401.838 3645.66 2892.77 3081.59 2540.16
 401.596 3673.7 2914.54 3102.86 2557.52
 401.355 3702.03 2936.53 3124.33 2575.05
 401.113 3730.68 2958.75 3146 2592.74
 400.873 3759.63 2981.2 3167.88 2610.59
 400.632 3788.9 3003.9 3189.96 2628.61
 400.392 3818.5 3026.83 3212.26 2646.8
 400.152 3848.41 3050.01 3234.77 2665.16
 399.912 3878.66 3073.44 3257.49 2683.7
 399.673 3909.24 3097.12 3280.44 2702.41
 399.433 3940.16 3121.06 3303.6 2721.3
 399.195 3971.42 3145.25 3326.99 2740.37
 398.956 4003.03 3169.71 3350.61 2759.63
 398.718 4035 3194.43 3374.46 2779.07
 398.48 4067.33 3219.43 3398.54 2798.69
 398.242 4100.02 3244.7 3422.85 2818.51
 398.005 4133.09 3270.24 3447.41 2838.52
 397.768 4166.53 3296.07 3472.21 2858.72
 397.531 4200.35 3322.19 3497.25 2879.13
 397.294 4234.57 3348.6 3522.54 2899.73
 397.058 4269.17 3375.3 3548.08 2920.53
 396.822 4304.18 3402.3 3573.88 2941.54
 396.586 4339.59 3429.61 3599.94 2962.76
 396.351 4375.41 3457.22 3626.26 2984.18
 396.115 4411.66 3485.15 3652.84 3005.83
 395.881 4448.33 3513.39 3679.69 3027.68
 395.646 4485.43 3541.96 3706.82 3049.76
 395.412 4522.97 3570.86 3734.22 3072.06
 395.178 4560.96 3600.08 3761.9 3094.58
 394.944 4599.4 3629.65 3789.87 3117.33
 394.71 4638.3 3659.56 3818.12 3140.31
 394.477 4677.67 3689.82 3846.66 3163.53
 394.244 4717.51 3720.43 3875.5 3186.98
 394.011 4757.83 3751.4 3904.64 3210.67
 393.779 4798.65 3782.73 3934.08 3234.61
 393.547 4839.96 3814.44 3963.83 3258.8
 393.315 4881.79 3846.52 3993.89 3283.23
 393.083 4924.12 3878.98 4024.27 3307.92
 392.852 4966.98 3911.84 4054.97 3332.86
 392.621 5010.38 3945.08 4085.99 3358.07
 392.39 5054.31 3978.73 4117.34 3383.54
 392.16 5098.79 4012.79 4149.03 3409.28
 391.93 5143.84 4047.26 4181.05 3435.29
 391.7 5189.45 4082.15 4213.42 3461.57
 391.47 5235.64 4117.46 4246.14 3488.14
 391.241 5282.42 4153.21 4279.21 3514.99
 391.011 5329.79 4189.41 4312.64 3542.12
 390.783 5377.78 4226.05 4346.43 3569.55
 390.554 5426.38 4263.15 4380.59 3597.27
 390.326 5475.61 4300.71 4415.12 3625.29
 390.098 5525.49 4338.74 4450.04 3653.62
 389.87 5576.01 4377.25 4485.33 3682.25
 389.642 5627.2 4416.25 4521.02 3711.2
 389.415 5679.06 4455.74 4557.11 3740.46
 389.188 5731.61 4495.74 4593.59 3770.05
 388.961 5784.85 4536.25 4630.49 3799.96
 388.735 5838.81 4577.28 4667.79 3830.21
 388.508 5893.49 4618.84 4705.52 3860.79
 388.282 5948.91 4660.95 4743.68 3891.71
 388.057 6005.08 4703.59 4782.26 3922.97
 387.831 6062.01 4746.8 4821.29 3954.59
 387.606 6119.72 4790.58 4860.75 3986.57
 387.381 6178.22 4834.93 4900.68 4018.9
 387.157 6237.53 4879.87 4941.06 4051.6
 386.932 6297.66 4925.41 4981.9 4084.68
 386.708 6358.63 4971.55 5023.22 4118.13
 386.484 6420.45 5018.32 5065.02 4151.97
 386.261 6483.13 5065.72 5107.3 4186.19
 386.037 6546.7 5113.76 5150.08 4220.81
 385.814 6611.18 5162.45 5193.36 4255.83
 385.591 6676.57 5211.81 5237.15 4291.26
 385.369 6742.9 5261.85 5281.46 4327.1
 385.146 6810.18 5312.57 5326.3 4363.37
 384.924 6878.43 5364 5371.67 4400.06
 384.703 6947.68 5416.14 5417.58 4437.18
 384.481 7017.93 5469.02 5464.04 4474.74
 384.26 7089.22 5522.63 5511.06 4512.75
 384.039 7161.56 5577 5558.65 4551.21
 383.818 7234.97 5632.14 5606.81 4590.13
 383.597 7309.48 5688.07 5655.56 4629.52
 383.377 7385.09 5744.8 5704.91 4669.38
 383.157 7461.85 5802.34 5754.86 4709.73
 382.937 7539.77 5860.71 5805.43 4750.56
 382.718 7618.87 5919.93 5856.62 4791.9
 382.498 7699.19 5980.02 5908.44 4833.74
 382.279 7780.73 6040.98 5960.91 4876.09
 382.061 7863.54 6102.84 6014.04 4918.97
 381.842 7947.63 6165.62 6067.83 4962.37
 381.624 8033.03 6229.33 6122.29 5006.32
 381.406 8119.78 6293.99 6177.45 5050.81
 381.188 8207.89 6359.62 6233.3 5095.86
 380.971 8297.4 6426.24 6289.87 5141.48
 380.753 8388.35 6493.87 6347.16 5187.67
 380.536 8480.75 6562.53 6405.18 5234.44
 380.319 8574.64 6632.24 6463.94 5281.81
 380.103 8670.05 6703.03 6523.47 5329.78
 379.887 8767.03 6774.91 6583.77 5378.36
 379.671 8865.59 6847.91 6644.85 5427.57
 379.455 8965.78 6922.05 6706.73 5477.42
 379.239 9067.64 6997.36 6769.43 5527.9
 379.024 9171.19 7073.86 6832.94 5579.05
 378.809 9276.49 7151.57 6897.3 5630.86
 378.594 9383.57 7230.52 6962.51 5683.35
 378.379 9492.47 7310.74 7028.59 5736.52
 378.165 9603.23 7392.26 7095.55 5790.4
 377.951 9715.9 7475.1 7163.41 5844.99
 377.737 9830.52 7559.29 7232.18 5900.31
 377.524 9947.14 7644.86 7301.88 5956.36
 377.31 10065.8 7731.84 7372.53 6013.16
 377.097 10186.6 7820.27 7444.14 6070.73
 376.884 10309.5 7910.18 7516.73 6129.07
 376.672 10434.6 8001.59 7590.32 6188.2
 376.459 10561.9 8094.55 7664.92 6248.13
 376.247 10691.6 8189.09 7740.55 6308.88
 376.035 10823.6 8285.24 7817.24 6370.46
 375.823 10958.1 8383.05 7894.99 6432.89
 375.612 11095 8482.55 7973.83 6496.18
 375.401 11234.5 8583.78 8053.77 6560.34
 375.19 11376.6 8686.78 8134.85 6625.4
 374.979 11521.4 8791.6 8217.07 6691.36
 374.769 11669 8898.27 8300.46 6758.24
 374.558 11819.3 9006.85 8385.04 6826.07
 374.348 11972.6 9117.38 8470.83 6894.85
 374.138 12128.9 9229.9 8557.85 6964.6
 373.929 12288.2 9344.48 8646.13 7035.34
 373.72 12450.6 9461.14 8735.69 7107.1
 373.51 12616.3 9579.97 8826.55 7179.87
 373.302 12785.3 9700.99 8918.74 7253.7
 373.093 12957.7 9824.28 9012.27 7328.58
 372.885 13133.7 9949.88 9107.18 7404.55
 372.676 13313.2 10077.9 9203.5 7481.62
 372.469 13496.4 10208.3 9301.24 7559.81
 372.261 13683.5 10341.2 9400.43 7639.14
 372.053 13874.5 10476.7 9501.1 7719.64
 371.846 14069.6 10614.9 9603.29 7801.32
 371.639 14268.8 10755.8 9707 7884.21
 371.432 14472.3 10899.4 9812.29 7968.32
 371.226 14680.3 11045.9 9919.17 8053.69
 371.02 14892.8 11195.4 10027.7 8140.33
 370.813 15110 11347.9 10137.8 8228.26
 370.608 15332.1 11503.5 10249.7 8317.51
 370.402 15559.2 11662.3 10363.2 8408.11
 370.197 15791.4 11824.5 10478.6 8500.08
 369.991 16029 11990 10595.7 8593.44
 369.787 16272.1 12159 10714.6 8688.21
 369.582 16520.9 12331.6 10835.4 8784.43
 369.377 16775.6 12507.9 10958 8882.13
 369.173 17036.3 12688 11082.6 8981.32
 368.969 17303.4 12872.1 11209.2 9082.03
 368.765 17577 13060.3 11337.7 9184.3
 368.562 17857.2 13252.6 11468.3 9288.14
 368.358 18144.5 13449.3 11601 9393.59
 368.155 18439 13650.4 11735.7 9500.69
 367.952 18741 13856.1 11872.7 9609.44
 367.75 19050.7 14066.6 12011.8 9719.9
 367.547 19368.5 14282 12153.2 9832.07
 367.345 19694.6 14502.5 12296.8 9946.01
 367.143 20029.3 14728.3 12442.8 10061.7
 366.941 20373 14959.4 12591.1 10179.3
 366.739 20726.1 15196.3 12741.9 10298.7
 366.538 21088.8 15438.9 12895.1 10419.9
 366.337 21461.6 15687.6 13050.8 10543.1
 366.136 21844.8 15942.5 13209.1 10668.2
 365.935 22239 16203.9 13369.9 10795.3
 365.735 22644.4 16472.1 13533.4 10924.4
 365.535 23061.6 16747.2 13699.6 11055.6
 365.335 23491 17029.5 13868.5 11188.8
 365.135 23933.1 17319.2 14040.3 11324.1
 364.935 24388.6 17616.8 14214.8 11461.5
 364.736 24857.8 17922.5 14392.3 11601.1
 364.537 25341.4 18236.5 14572.7 11742.9
 364.338 25840.1 18559.2 14756.1 11886.9
 364.139 26354.3 18890.9 14942.5 12033.2
 363.941 26884.8 19232.1 15132 12181.7
 363.742 27432.2 19583 15324.7 12332.6
 363.544 27997.2 19944 15520.5 12485.8
 363.346 28580.7 20315.5 15719.6 12641.3
 363.149 29183.2 20698 15922 12799.2
 362.951 29805.7 21091.7 16127.7 12959.4
 362.754 30448.8 21497.3 16336.8 13122.1
 362.557 31113.5 21915.1 16549.3 13287.2
 362.36 31800.5 22345.5 16765.3 13454.8
 362.164 32510.7 22789 16984.8 13624.7
 361.967 33244.8 23246.1 17207.8 13797.1
 361.771 34003.9 23717.2 17434.5 13971.9
 361.575 34788.6 24202.7 17664.7 14149.1
 361.379 35599.7 24703.1 17898.6 14328.7
 361.184 36438.1 25218.9 18136.2 14510.6
 360.989 37304.4 25750.3 18377.4 14694.9
 360.794 38199.1 26297.7 18622.3 14881.4
 360.599 39122.9 26861.5 18871 15070.1
 360.404 40076.1 27441.8 19123.3 15261
 360.21 41059 28038.9 19379.3 15453.9
 360.015 42071.6 28652.8 19639 15648.8
 359.821 43113.6 29283.3 19902.3 15845.5
 359.627 44184.8 29930.5 20169.1 16043.8
 359.434 45284.3 30593.8 20439.5 16243.6
 359.24 46410.9 31272.8 20713.2 16444.7
 359.047 47563.2 31966.7 20990.3 16646.8
 358.854 48739.2 32674.5 21270.6 16849.7
 358.661 49936.4 33395 21554 17053
 358.469 51151.7 34126.6 21840.2 17256.4
 358.276 52381.4 34867.5 22129 17459.6
 358.084 53621.4 35615.6 22420.3 17662
 357.892 54866.7 36368.1 22713.8 17863.1
 357.701 56111.7 37122.4 23009.2 18062.4
 357.509 57350.4 37875.3 23306.1 18259.2
 357.318 58576 38623.1 23604.2 18452.8
 357.127 59781.3 39362.1 23903.1 18642.6
 356.936 60958.8 40088.4 24202.4 18827.5
 356.745 62100.5 40797.7 24501.7 19007
 356.554 63198.5 41485.8 24800.5 19179.9
 356.364 64245.1 42148.5 25098.4 19345.6
 356.174 65232.6 42781.6 25395.3 19503.1
 355.984 66154.2 43381.3 25690.8 19651.8
 355.794 67003.4 43944.1 25984.9 19791.2
 355.605 67775 44466.9 26277.8 19921
 355.415 68464.6 44947.1 26570.1 20041.7
 355.226 69069.1 45382.7 26862.7 20153.9
 355.037 69586.9 45772.6 27157.2 20259.3
 354.849 70017.4 46116.2 27455.6 20360.4
 354.66 70361.7 46413.4 27760.8 20460.8
 354.472 70621.9 46665 28076.5 20565.4
 354.284 70801.2 46872.4 28407 20680.1
 354.096 70904 47037.4 28757 20811.8
 353.908 70935.4 47162.2 29131.8 20968.1
 353.721 70901.1 47249.5 29536.4 21156.9
 353.533 70807.4 47302.2 29975.5 21385.5
 353.346 70660.6 47323.3 30452.7 21660.2
 353.159 70467.1 47315.7 30970.4 21985.5
 352.973 70233.4 47282.4 31529.4 22363.8
 352.786 69965.5 47226.5 32129 22795.1
 352.6 69669.2 47150.5 32766.9 23277.4
 352.414 69349.9 47056.9 33439.9 23806.6
 352.228 69012.4 46948.2 34143.9 24377.4
 352.042 68661.1 46826.2 34874.3 24983.7
 351.856 68299.7 46692.7 35626.9 25619.4
 351.671 67931.7 46549.1 36397.4 26278.2
 351.486 67559.7 46396.7 37182.1 26954.8
 351.301 67186.1 46236.4 37978 27644.3
 351.116 66812.7 46069 38782.4 28342.7
 350.932 66441 45894.9 39593.5 29046.8
 350.747 66072.1 45714.4 40409.5 29753.9
 350.563 65706.6 45527.6 41229.5 30462.3
 350.379 65345.1 45334.6 42052.6 31170.5
 350.195 64987.7 45135.2 42878.2 31877.5
 350.012 64634.3 44929 43705.9 32582.6
 349.828 64284.9 44715.6 44535.6 33285.3
 349.645 63938.9 44494.7 45366.9 33985.4
 349.462 63595.8 44265.5 46199.7 34682.7
 349.279 63255.1 44027.6 47034 35377
 349.097 62916 43780.1 47869.4 36068.4
 348.914 62577.6 43522.5 48705.7 36756.5
 348.732 62239.2 43253.8 49542.8 37441.5
 348.55 61899.7 42973.3 50380.3 38123
 348.368 61558.1 42680.2 51217.7 38801
 348.186 61213.4 42373.6 52054.7 39475.1
 348.005 60864.4 42052.5 52890.7 40145
 347.823 60510 41716 53725 40810.3
 347.642 60148.9 41363.1 54556.9 41470.7
 347.461 59779.8 40992.9 55385.7 42125.4
 347.281 59401.4 40604.4 56210.5 42774
 347.1 59012.2 40196.5 57030.3 43415.8
 346.92 58610.7 39768.1 57844.1 44049.9
 346.74 58195.4 39318.3 58650.7 44675.7
 346.56 57764.8 38846.1 59449 45292.1
 346.38 57317.4 38350.4 60237.6 45898.2
 346.2 56851.6 37830.5 61015.2 46493.1
 346.021 56366.2 37285.5 61780.4 47075.5
 345.841 55859.8 36714.8 62531.7 47644.4
 345.662 55331.5 36118.2 63267.4 48198.5
 345.483 54780.9 35495.4 63986 48736.6
 345.305 54207.6 34846.6 64685.8 49257.3
 345.126 53612.4 34172.6 65365 49759.4
 344.948 52996.3 33474.5 66021.9 50241.4
 344.77 52361.4 32753.7 66654.7 50701.8
 344.592 51710.8 32012.6 67261.5 51139.4
 344.414 51048.6 31253.9 67840.5 51552.5
 344.236 50379.9 30481.1 68389.8 51939.7
 344.059 49711.3 29698.3 68907.5 52299.5
 343.882 49050.3 28910.3 69391.9 52630.6
 343.705 48405.7 28122.4 69841 52931.3
 343.528 47787.2 27340.9 70253.1 53200.3
 343.351 47205.6 26572.3 70626.4 53436.1
 343.175 46672.5 25823.9 70959.1 53637.5
 342.998 46200.1 25103.6 71249.8 53803
 342.822 45800.9 24419.7 71496.6 53931.4
 342.646 45487.5 23781.1 71698.3 54021.4
 342.471 45272.4 23197.1 71853.2 54072
 342.295 45166.9 22677.1 71960.1 54082.2
 342.12 45181.3 22230.8 72017.8 54050.8
 341.944 45323.6 21867.4 72025 53977.1
 341.769 45598.7 21595.5 71980.8 53860.3
 341.594 46007.4 21422.3 71884.2 53699.7
 341.42 46545.6 21353 71734.3 53495.1
 341.245 47202.6 21389.7 71530.7 53246
 341.071 47960.9 21531.1 71272.7 52952.4
 340.897 48795.4 21771.5 70960.2 52614.6
 340.723 49674 22100.4 70593.1 52233.1
 340.549 50558.3 22502.4 70171.7 51808.7
 340.375 51406 22958.2 69696.7 51342.8
 340.202 52173.1 23445.1 69169.3 50836.9
 340.029 52818.3 23939 68591.2 50293.2
 339.855 53305.4 24415.7 67964.6 49713.8
 339.683 53607 24853.3 67292.1 49101.3
